,subject,trial_num,letter,frequency,r,g,b,ITI,oddball,button,correct,RT,missing
0,102,0,O,40,138,154,91,0.62,0,lalt,True,0.49731486,False
1,102,1,I,80,3,121,112,0.57,0,lalt,True,0.43873011,False
2,102,2,T,40,157,193,131,0.95,0,lalt,True,0.46665342,False
3,102,3,R,20,138,154,91,0.89,0,lalt,True,0.45897475,False
4,102,4,R,20,138,154,91,0.99,0,lalt,True,0.40918695,False
5,102,5,2,0,76,154,68,0.92,1,ralt,True,0.3386263,False
6,102,6,A,20,157,193,131,0.74,0,lalt,True,0.40256884,False
7,102,7,D,80,0,168,107,0.83,0,lalt,True,0.44413007,False
8,102,8,D,80,0,168,107,0.71,0,lalt,True,0.39440552,False
9,102,9,T,40,157,193,131,0.68,0,lalt,True,0.37244698,False
10,102,10,D,80,76,154,68,0.59,0,lalt,True,0.31858307,False
11,102,11,D,80,0,168,107,0.63,0,lalt,True,0.32212987,False
12,102,12,D,80,3,121,112,0.83,0,lalt,True,0.32412090000000005,False
13,102,13,R,20,76,154,68,0.6,0,lalt,True,0.33828313,False
14,102,14,I,80,3,121,112,1.0,0,lalt,True,0.38013454,False
15,102,15,I,80,3,121,112,0.92,0,lalt,True,0.3474607,False
16,102,16,O,40,0,168,107,0.9,0,lalt,True,0.31550233,False
17,102,17,D,80,157,193,131,0.73,0,lalt,True,0.32917353,False
18,102,18,D,80,0,168,107,0.51,0,lalt,True,0.38427585,False
19,102,19,A,20,75,124,89,0.61,0,lalt,True,0.33428802,False
20,102,20,R,20,76,154,68,0.6,0,lalt,True,0.33182344,False
21,102,21,T,40,157,193,131,0.79,0,lalt,True,0.34206407,False
22,102,22,D,80,0,168,107,0.68,0,lalt,True,0.30960774,False
23,102,23,A,20,138,154,91,0.62,0,lalt,True,0.32510934,False
24,102,24,O,40,138,154,91,0.87,0,lalt,True,0.57526761,False
25,102,25,T,40,157,193,131,0.86,0,lalt,True,0.38258248,False
26,102,26,D,80,0,168,107,0.68,0,lalt,True,0.38126835,False
27,102,27,T,40,157,193,131,0.76,0,lalt,True,0.50303607,False
28,102,28,D,80,0,168,107,0.97,0,lalt,True,0.48088751,False
29,102,29,5,0,75,124,89,0.65,1,ralt,True,0.35574970000000006,False
30,102,30,A,20,76,154,68,0.78,0,lalt,True,0.42823008,False
31,102,31,I,80,3,121,112,0.98,0,lalt,True,0.39025089,False
32,102,32,R,20,76,154,68,0.75,0,lalt,True,0.37609116,False
33,102,33,A,20,3,121,112,0.52,0,lalt,True,0.43169893,False
34,102,34,T,40,75,124,89,0.94,0,lalt,True,0.38285435,False
35,102,35,O,40,75,124,89,0.68,0,lalt,True,0.42876217,False
36,102,36,O,40,138,154,91,0.8,0,lalt,True,0.32026866,False
37,102,37,R,20,76,154,68,0.93,0,lalt,True,0.31653572,False
38,102,38,O,40,138,154,91,0.8,0,lalt,True,0.34817533,False
39,102,39,A,20,75,124,89,0.98,0,lalt,True,0.34968838,False
40,102,40,T,40,75,124,89,0.63,0,lalt,True,0.33135293,False
41,102,41,D,80,0,168,107,0.93,0,lalt,True,0.35985272,False
42,102,42,A,20,157,193,131,0.64,0,lalt,True,0.30936166,False
43,102,43,O,40,138,154,91,0.9,0,lalt,True,0.38756409,False
44,102,44,D,80,0,168,107,0.99,0,lalt,True,0.34730923,False
45,102,45,R,20,0,168,107,0.94,0,lalt,True,0.35884875,False
46,102,46,4,0,245,127,32,0.57,1,ralt,True,0.39206327,False
47,102,47,T,40,157,193,131,0.74,0,lalt,True,0.31262078,False
48,102,48,O,40,138,154,91,0.97,0,lalt,True,0.36646722,False
49,102,49,O,40,157,193,131,0.79,0,lalt,True,0.32828385,False
50,102,50,A,20,75,124,89,0.87,0,lalt,True,0.33304408,False
51,102,51,O,40,157,193,131,0.84,0,lalt,True,0.29900978,False
52,102,52,I,80,3,121,112,0.76,0,lalt,True,0.43305745,False
53,102,53,I,80,3,121,112,0.91,0,lalt,True,0.37665376,False
54,102,54,O,0,245,127,32,0.67,1,ralt,True,0.43467647,False
55,102,55,O,40,157,193,131,0.65,0,lalt,True,0.42423414,False
56,102,56,I,80,3,121,112,0.78,0,lalt,True,0.39422103,False
57,102,57,I,80,3,121,112,0.74,0,lalt,True,0.3961244,False
58,102,58,R,20,157,193,131,0.68,0,lalt,True,0.37573467,False
59,102,59,I,80,3,121,112,0.99,0,lalt,True,0.39394805,False
60,102,60,R,20,3,121,112,0.8,0,lalt,True,0.34978769,False
61,102,61,D,80,0,168,107,1.0,0,lalt,True,0.38559109,False
62,102,62,D,80,0,168,107,0.65,0,lalt,True,0.40125305,False
63,102,63,I,80,138,154,91,0.59,0,lalt,True,0.42728048,False
64,102,64,T,40,138,154,91,0.72,0,lalt,True,0.45467531,False
65,102,65,I,80,76,154,68,0.94,0,lalt,True,0.41963038,False
66,102,66,I,0,245,127,32,0.74,1,lalt,False,0.39966066,False
67,102,67,A,20,157,193,131,0.88,0,lalt,True,0.46770456,False
68,102,68,D,80,0,168,107,0.95,0,lalt,True,0.48123206,False
69,102,69,T,40,75,124,89,0.51,0,lalt,True,0.5210056,False
70,102,70,R,20,3,121,112,0.8,0,lalt,True,0.42128712,False
71,102,71,D,80,0,168,107,0.94,0,lalt,True,0.38304438,False
72,102,72,D,80,3,121,112,0.63,0,lalt,True,0.36875676,False
73,102,73,A,20,138,154,91,0.85,0,lalt,True,0.36458604,False
74,102,74,T,40,157,193,131,0.96,0,lalt,True,0.31623166,False
75,102,75,A,20,3,121,112,0.61,0,lalt,True,0.34239254,False
76,102,76,A,20,75,124,89,0.97,0,lalt,True,0.41201357,False
77,102,77,8,0,245,127,32,0.63,1,ralt,True,0.45130523,False
78,102,78,T,40,157,193,131,0.78,0,lalt,True,0.44805055,False
79,102,79,R,20,3,121,112,0.81,0,lalt,True,0.54171408,False
80,102,80,5,0,245,127,32,0.97,1,ralt,True,0.42959804,False
81,102,81,D,80,0,168,107,0.71,0,lalt,True,0.64626492,False
82,102,82,I,80,3,121,112,0.9,0,lalt,True,0.56799397,False
83,102,83,D,80,0,168,107,0.82,0,lalt,True,0.38209922,False
84,102,84,R,20,0,168,107,0.9,0,lalt,True,0.36791341,False
85,102,85,A,20,75,124,89,0.62,0,lalt,True,0.34188431,False
86,102,86,A,20,138,154,91,0.58,0,lalt,True,0.37362657,False
87,102,87,D,80,0,168,107,0.75,0,lalt,True,0.34948725,False
88,102,88,I,80,3,121,112,0.97,0,lalt,True,0.33325159,False
89,102,89,7,0,138,154,91,0.64,1,ralt,True,0.46444767,False
90,102,90,T,40,0,168,107,0.68,0,lalt,True,0.29878313,False
91,102,91,O,40,76,154,68,0.57,0,lalt,True,0.35688351,False
92,102,92,R,20,75,124,89,0.89,0,lalt,True,0.43683062,False
93,102,93,I,80,3,121,112,0.61,0,lalt,True,0.35629205,False
94,102,94,A,20,75,124,89,0.9,0,lalt,True,0.36847657,False
95,102,95,R,20,138,154,91,0.65,0,lalt,True,0.37836072,False
96,102,96,O,40,76,154,68,0.98,0,lalt,True,0.43811535,False
97,102,97,O,40,138,154,91,0.56,0,lalt,True,0.29466291,False
98,102,98,O,40,138,154,91,0.8,0,lalt,True,0.35641717,False
99,102,99,I,80,3,121,112,0.89,0,lalt,True,0.29649248,False
100,102,100,A,20,3,121,112,0.9,0,lalt,True,0.30447771,False
101,102,101,O,40,75,124,89,0.77,0,lalt,True,0.31409138,False
102,102,102,A,20,76,154,68,0.7,0,lalt,True,0.30995922,False
103,102,103,O,40,138,154,91,0.63,0,lalt,True,0.35206752,False
104,102,104,A,20,157,193,131,0.59,0,lalt,True,0.38787175,False
105,102,105,O,40,138,154,91,0.73,0,lalt,True,0.28784256,False
106,102,106,O,40,138,154,91,0.58,0,lalt,True,0.30530719,False
107,102,107,D,80,0,168,107,0.54,0,lalt,True,0.27746405,False
108,102,108,D,80,0,168,107,0.82,0,lalt,True,0.35725914,False
109,102,109,D,80,75,124,89,0.93,0,lalt,True,0.32288805,False
110,102,110,R,20,138,154,91,0.63,0,lalt,True,0.32076608,False
111,102,111,I,80,3,121,112,0.72,0,lalt,True,0.40495714,False
112,102,112,A,20,138,154,91,0.91,0,lalt,True,0.31834754,False
113,102,113,O,40,76,154,68,0.66,0,lalt,True,0.32571967,False
114,102,114,T,40,157,193,131,0.85,0,lalt,True,0.41521415,False
115,102,115,O,40,0,168,107,0.6,0,lalt,True,0.41520111,False
116,102,116,O,40,75,124,89,0.61,0,lalt,True,0.53463435,False
117,102,117,1,0,245,127,32,0.87,1,ralt,True,0.42819513,False
118,102,118,T,40,157,193,131,0.88,0,lalt,True,0.38088606,False
119,102,119,I,80,3,121,112,0.86,0,lalt,True,0.44275601,False
120,102,120,R,20,138,154,91,0.58,0,lalt,True,0.46469124,False
121,102,121,T,40,138,154,91,0.6,0,lalt,True,0.3465455,False
122,102,122,A,20,75,124,89,0.51,0,lalt,True,0.48736857,False
123,102,123,A,20,76,154,68,0.77,0,lalt,True,0.3618002,False
124,102,124,O,40,138,154,91,0.71,0,lalt,True,0.47218155,False
125,102,125,R,20,76,154,68,0.74,0,lalt,True,0.32599265,False
126,102,126,T,40,75,124,89,0.66,0,lalt,True,0.30376169,False
127,102,127,O,40,3,121,112,0.6,0,lalt,True,0.36165151,False
128,102,128,9,0,138,154,91,0.77,1,ralt,True,0.51872799,False
129,102,129,A,20,75,124,89,0.79,0,lalt,True,0.38328518,False
130,102,130,D,80,3,121,112,0.95,0,lalt,True,0.33142395,False
131,102,131,6,0,0,168,107,0.53,1,ralt,True,0.44707820000000004,False
132,102,132,A,20,76,154,68,0.97,0,lalt,True,0.51182054,False
133,102,133,4,0,245,127,32,0.92,1,ralt,True,0.50735853,False
134,102,134,R,20,76,154,68,0.75,0,lalt,True,0.47751271,False
135,102,135,T,40,0,168,107,0.65,0,lalt,True,0.4770963,False
136,102,136,R,20,157,193,131,0.92,0,lalt,True,0.37319352,False
137,102,137,T,40,75,124,89,0.96,0,lalt,True,0.37071755,False
138,102,138,T,40,157,193,131,0.52,0,lalt,True,0.36663367,False
139,102,139,T,40,75,124,89,0.51,0,lalt,True,0.3784764,False
140,102,140,I,80,138,154,91,0.77,0,lalt,True,0.38470390000000004,False
141,102,141,D,80,0,168,107,0.61,0,lalt,True,0.43661507,False
142,102,142,R,20,75,124,89,0.74,0,lalt,True,0.32424297,False
143,102,143,A,20,0,168,107,0.72,0,lalt,True,0.32616797,False
144,102,144,O,40,0,168,107,0.78,0,lalt,True,0.30808082,False
145,102,145,A,20,75,124,89,0.61,0,lalt,True,0.32146462,False
146,102,146,R,20,76,154,68,0.99,0,lalt,True,0.35050482,False
147,102,147,A,20,157,193,131,0.99,0,lalt,True,0.33039473,False
148,102,148,9,0,245,127,32,0.8,1,ralt,True,0.43831398,False
149,102,149,D,80,0,168,107,0.73,0,lalt,True,0.51623816,False
150,102,150,T,40,157,193,131,0.62,0,lalt,True,0.33970601,False
151,102,151,1,0,75,124,89,0.66,1,ralt,True,0.43758465,False
152,102,152,O,40,157,193,131,0.51,0,lalt,True,0.54732571,False
153,102,153,A,20,138,154,91,0.95,0,lalt,True,0.62936539,False
154,102,154,D,80,138,154,91,0.61,0,lalt,True,0.4615148,False
155,102,155,T,40,157,193,131,0.78,0,lalt,True,0.37334055,False
156,102,156,O,40,138,154,91,0.54,0,lalt,True,0.34717329999999996,False
157,102,157,R,20,157,193,131,0.7,0,lalt,True,0.3648962,False
158,102,158,O,40,138,154,91,0.92,0,lalt,True,0.31051351,False
159,102,159,T,40,157,193,131,0.73,0,lalt,True,0.33237716,False
160,102,160,R,20,75,124,89,0.66,0,lalt,True,0.36836005,False
161,102,161,D,80,138,154,91,0.72,0,lalt,True,0.37044874,False
162,102,162,T,40,157,193,131,0.87,0,lalt,True,0.31424867,False
163,102,163,A,20,75,124,89,0.78,0,lalt,True,0.3307476,False
164,102,164,R,20,76,154,68,0.54,0,lalt,True,0.45656925,False
165,102,165,A,20,3,121,112,0.81,0,lalt,True,0.31844325,False
166,102,166,R,20,0,168,107,0.69,0,lalt,True,0.32663543,False
167,102,167,D,80,0,168,107,0.88,0,lalt,True,0.57784234,False
168,102,168,A,20,0,168,107,0.64,0,lalt,True,0.37236875,False
169,102,169,A,20,0,168,107,0.76,0,lalt,True,0.33795411,False
170,102,170,A,20,157,193,131,0.89,0,lalt,True,0.42941466,False
171,102,171,I,80,138,154,91,0.62,0,lalt,True,0.32795677,False
172,102,172,T,40,157,193,131,0.74,0,lalt,True,0.3253618,False
173,102,173,A,20,75,124,89,0.79,0,lalt,True,0.33121866,False
174,102,174,T,40,157,193,131,0.58,0,lalt,True,0.38746894,False
175,102,175,A,20,75,124,89,0.51,0,lalt,True,0.35723084,False
176,102,176,R,20,76,154,68,0.76,0,lalt,True,0.26497354,False
177,102,177,A,20,157,193,131,0.64,0,lalt,True,0.27108896,False
178,102,178,O,40,138,154,91,0.85,0,lalt,True,0.36487595,False
179,102,179,O,40,138,154,91,0.93,0,lalt,True,0.3434373,False
180,102,180,A,20,75,124,89,0.52,0,lalt,True,0.36357652,False
181,102,181,O,0,245,127,32,0.68,1,ralt,True,0.47746249,False
182,102,182,D,80,0,168,107,0.72,0,lalt,True,0.33910374,False
183,102,183,A,20,75,124,89,0.79,0,lalt,True,0.45265681,False
184,102,184,I,80,76,154,68,0.68,0,lalt,True,0.40874141,False
185,102,185,A,20,3,121,112,0.95,0,lalt,True,0.43078649999999996,False
186,102,186,I,80,3,121,112,0.81,0,lalt,True,0.37817457,False
187,102,187,I,80,3,121,112,0.92,0,lalt,True,0.39597182,False
188,102,188,R,20,157,193,131,0.85,0,lalt,True,0.34431782,False
189,102,189,T,40,3,121,112,0.71,0,lalt,True,0.36022225,False
190,102,190,I,80,3,121,112,0.9,0,lalt,True,0.39997803,False
191,102,191,I,80,3,121,112,0.72,0,lalt,True,0.38365332,False
192,102,192,R,20,76,154,68,0.9,0,lalt,True,0.32351252,False
193,102,193,D,80,75,124,89,0.59,0,lalt,True,0.33687301,False
194,102,194,A,20,138,154,91,0.97,0,lalt,True,0.36144788,False
195,102,195,D,80,3,121,112,0.69,0,lalt,True,0.34595543,False
196,102,196,I,80,3,121,112,0.78,0,lalt,True,0.3663274,False
197,102,197,A,20,76,154,68,0.59,0,lalt,True,0.4559925,False
198,102,198,I,80,3,121,112,0.75,0,lalt,True,0.37979054,False
199,102,199,O,40,138,154,91,0.61,0,lalt,True,0.37503641,False
200,102,200,A,20,0,168,107,0.69,0,lalt,True,0.31514973,False
201,102,201,R,20,76,154,68,0.74,0,lalt,True,0.33917892,False
202,102,202,D,80,0,168,107,0.93,0,lalt,True,0.34087478,False
203,102,203,I,80,3,121,112,0.74,0,lalt,True,0.28909539,False
204,102,204,D,80,0,168,107,0.67,0,lalt,True,0.30697420000000003,False
205,102,205,I,80,3,121,112,0.92,0,lalt,True,0.36487539,False
206,102,206,O,40,138,154,91,0.95,0,lalt,True,0.48245964,False
207,102,207,T,40,138,154,91,0.66,0,lalt,True,0.24620394,False
208,102,208,8,0,245,127,32,0.51,1,ralt,True,0.41606666,False
209,102,209,D,80,0,168,107,0.76,0,lalt,True,0.48011573,False
210,102,210,R,20,76,154,68,0.5,0,lalt,True,0.34191898,False
211,102,211,A,20,3,121,112,0.68,0,lalt,True,0.38787314,False
212,102,212,D,80,0,168,107,0.86,0,lalt,True,0.32277625,False
213,102,213,R,20,0,168,107,0.8,0,lalt,True,0.41142572,False
214,102,214,O,40,3,121,112,0.72,0,lalt,True,0.37055083,False
215,102,215,O,40,0,168,107,0.97,0,lalt,True,0.42609396,False
216,102,216,A,20,75,124,89,0.5,0,lalt,True,0.33210196,False
217,102,217,A,20,0,168,107,0.97,0,lalt,True,0.29579394,False
218,102,218,D,80,0,168,107,0.92,0,lalt,True,0.34584779,False
219,102,219,D,80,0,168,107,0.57,0,lalt,True,0.32529050000000004,False
220,102,220,I,80,3,121,112,0.93,0,lalt,True,0.58382848,False
221,102,221,D,80,0,168,107,0.66,0,lalt,True,0.42023654,False
222,102,222,D,80,76,154,68,0.65,0,lalt,True,0.36836393,False
223,102,223,R,20,76,154,68,1.0,0,lalt,True,0.29338539,False
224,102,224,O,40,138,154,91,0.95,0,lalt,True,0.29113081,False
225,102,225,O,40,75,124,89,0.58,0,lalt,True,0.31285437,False
226,102,226,T,40,138,154,91,0.62,0,lalt,True,0.31318893,False
227,102,227,D,80,0,168,107,0.51,0,lalt,True,0.37894885,False
228,102,228,R,20,76,154,68,0.97,0,lalt,True,0.35895389,False
229,102,229,I,80,3,121,112,0.67,0,lalt,True,0.35082746,False
230,102,230,O,40,3,121,112,0.64,0,lalt,True,0.25435894,False
231,102,231,R,0,245,127,32,0.83,1,ralt,True,0.48419822,False
232,102,232,O,40,138,154,91,0.56,0,lalt,True,0.38435186,False
233,102,233,D,80,0,168,107,0.62,0,lalt,True,0.37027563,False
234,102,234,D,80,0,168,107,0.86,0,lalt,True,0.36172364,False
235,102,235,T,40,75,124,89,0.62,0,lalt,True,0.33995541,False
236,102,236,O,40,0,168,107,0.51,0,lalt,True,0.23729963,False
237,102,237,T,40,157,193,131,0.83,0,lalt,True,0.33362499,False
238,102,238,A,20,75,124,89,0.57,0,lalt,True,0.18927482,False
239,102,239,R,20,157,193,131,0.52,0,lalt,True,0.31737962,False
240,102,240,O,40,76,154,68,0.51,0,lalt,True,0.35180258,False
241,102,241,I,80,3,121,112,0.85,0,lalt,True,0.24401178,False
242,102,242,D,80,0,168,107,0.82,0,lalt,True,0.31585992,False
243,102,243,R,20,157,193,131,0.65,0,lalt,True,0.43358427,False
244,102,244,A,20,75,124,89,0.93,0,lalt,True,0.32957717,False
245,102,245,D,80,0,168,107,0.63,0,lalt,True,0.26504845,False
246,102,246,A,20,157,193,131,0.78,0,lalt,True,0.29279144,False
247,102,247,3,0,245,127,32,0.73,1,lalt,False,0.29011407,False
248,102,248,I,80,3,121,112,0.95,0,lalt,True,0.45893341,False
249,102,249,T,40,157,193,131,0.8,0,lalt,True,0.50081422,False
250,102,250,T,40,0,168,107,0.66,0,lalt,True,0.38834419,False
251,102,251,R,20,138,154,91,0.57,0,lalt,True,0.50013899,False
252,102,252,D,80,75,124,89,0.93,0,lalt,True,0.36401401,False
253,102,253,O,40,138,154,91,0.62,0,lalt,True,0.32365317,False
254,102,254,1,0,245,127,32,0.76,1,ralt,True,0.42575995,False
255,102,255,T,40,75,124,89,0.99,0,lalt,True,0.38752359,False
256,102,256,R,20,76,154,68,0.8,0,lalt,True,0.46016182,False
257,102,257,D,80,0,168,107,1.0,0,lalt,True,0.53455501,False
258,102,258,O,40,138,154,91,0.57,0,lalt,True,0.36806155,False
259,102,259,T,40,0,168,107,0.81,0,lalt,True,0.54822621,False
260,102,260,I,80,3,121,112,0.93,0,lalt,True,0.35186916,False
261,102,261,T,40,76,154,68,0.93,0,lalt,True,0.28745612,False
262,102,262,A,20,75,124,89,0.79,0,lalt,True,0.44379716,False
263,102,263,D,80,0,168,107,0.99,0,lalt,True,0.35175126,False
264,102,264,T,40,157,193,131,0.9,0,lalt,True,0.29141183,False
265,102,265,I,80,3,121,112,0.9,0,lalt,True,0.44069645,False
266,102,266,I,80,157,193,131,0.59,0,lalt,True,0.40889316,False
267,102,267,R,20,0,168,107,0.91,0,lalt,True,0.34095301,False
268,102,268,O,40,138,154,91,0.9,0,lalt,True,0.29260890000000006,False
269,102,269,5,0,245,127,32,0.52,1,ralt,True,0.41061399,False
270,102,270,O,40,138,154,91,0.58,0,lalt,True,0.6144877,False
271,102,271,O,40,138,154,91,0.83,0,lalt,True,0.35809333,False
272,102,272,4,0,75,124,89,0.73,1,ralt,True,0.67325721,False
273,102,273,O,40,138,154,91,0.8,0,lalt,True,0.45270259,False
274,102,274,T,40,75,124,89,0.7,0,lalt,True,0.53095134,False
275,102,275,I,80,3,121,112,0.92,0,lalt,True,0.43271899999999996,False
276,102,276,D,80,138,154,91,0.55,0,lalt,True,0.41849213,False
277,102,277,7,0,3,121,112,0.58,1,ralt,True,0.46644619,False
278,102,278,O,40,138,154,91,0.9,0,lalt,True,0.43225626,False
279,102,279,9,0,245,127,32,0.64,1,ralt,True,0.48598452,False
280,102,280,A,20,138,154,91,0.61,0,lalt,True,0.36810704,False
281,102,281,I,80,3,121,112,0.61,0,lalt,True,0.52355979,False
282,102,282,R,20,0,168,107,0.97,0,lalt,True,0.61135231,False
283,102,283,I,80,3,121,112,0.77,0,lalt,True,0.46321815,False
284,102,284,A,20,76,154,68,0.72,0,lalt,True,0.64706943,False
285,102,285,5,0,0,168,107,0.8,1,ralt,True,0.62127087,False
286,102,286,A,20,0,168,107,0.9,0,lalt,True,0.62700123,False
287,102,287,T,40,157,193,131,0.99,0,lalt,True,0.54478955,False
288,102,288,T,0,245,127,32,0.55,1,ralt,True,0.49963325,False
289,102,289,A,20,75,124,89,0.95,0,lalt,True,0.38952017,False
290,102,290,D,80,0,168,107,0.69,0,lalt,True,0.34934743,False
291,102,291,I,80,3,121,112,0.89,0,lalt,True,0.37263646,False
292,102,292,I,80,3,121,112,0.65,0,lalt,True,0.34700352,False
293,102,293,R,20,3,121,112,0.95,0,lalt,True,0.48311407,False
294,102,294,R,20,76,154,68,0.56,0,lalt,True,0.38869374,False
295,102,295,I,80,3,121,112,0.62,0,lalt,True,0.48033211,False
296,102,296,R,20,76,154,68,1.0,0,lalt,True,0.37805473,False
297,102,297,R,20,157,193,131,0.72,0,lalt,True,0.35769052,False
298,102,298,D,80,0,168,107,0.64,0,lalt,True,0.38429109999999994,False
299,102,299,D,80,0,168,107,0.55,0,lalt,True,0.36792478,False
300,102,300,T,40,157,193,131,0.64,0,lalt,True,0.41398213,False
301,102,301,D,80,0,168,107,0.98,0,lalt,True,0.35931703,False
302,102,302,T,40,75,124,89,0.66,0,lalt,True,0.38167199,False
303,102,303,O,40,138,154,91,0.78,0,lalt,True,0.29934518,False
304,102,304,R,20,0,168,107,0.74,0,lalt,True,0.27735585,False
305,102,305,O,40,76,154,68,0.86,0,lalt,True,0.29075796,False
306,102,306,O,40,138,154,91,0.51,0,lalt,True,0.27578428,False
307,102,307,I,80,3,121,112,0.81,0,lalt,True,0.50551398,False
308,102,308,O,40,75,124,89,0.9,0,lalt,True,0.33765311,False
309,102,309,T,40,157,193,131,0.67,0,lalt,True,0.29069166,False
310,102,310,D,80,0,168,107,0.97,0,lalt,True,0.28726109,False
311,102,311,D,80,0,168,107,0.9,0,lalt,True,0.26893092,False
312,102,312,I,80,3,121,112,0.9,0,lalt,True,0.26101838,False
313,102,313,T,40,157,193,131,0.62,0,lalt,True,0.3029347,False
314,102,314,O,40,76,154,68,0.63,0,lalt,True,0.25676944,False
315,102,315,A,0,245,127,32,0.85,1,ralt,True,0.45260244,False
316,102,316,A,20,157,193,131,0.53,0,lalt,True,0.42627595,False
317,102,317,R,20,76,154,68,0.9,0,lalt,True,0.42398419,False
318,102,318,D,80,0,168,107,0.61,0,lalt,True,0.45825401,False
319,102,319,O,40,0,168,107,0.75,0,lalt,True,0.36576258,False
320,102,320,I,80,3,121,112,0.77,0,lalt,True,0.32178559,False
321,102,321,D,80,0,168,107,0.95,0,lalt,True,0.40936505,False
322,102,322,I,80,3,121,112,0.97,0,lalt,True,0.27018874,False
323,102,323,O,40,3,121,112,0.76,0,lalt,True,0.29794505,False
324,102,324,A,20,3,121,112,0.85,0,lalt,True,0.43604691,False
325,102,325,D,80,0,168,107,0.77,0,lalt,True,0.38401563,False
326,102,326,T,40,157,193,131,0.86,0,lalt,True,0.39201528,False
327,102,327,T,40,76,154,68,0.64,0,lalt,True,0.37758894,False
328,102,328,T,40,157,193,131,0.82,0,lalt,True,0.31086583,False
329,102,329,R,20,3,121,112,0.62,0,lalt,True,0.31890321,False
330,102,330,T,40,157,193,131,0.95,0,lalt,True,0.40537327,False
331,102,331,R,20,76,154,68,0.89,0,lalt,True,0.35272722,False
332,102,332,D,80,0,168,107,0.6,0,lalt,True,0.22901479,False
333,102,333,I,80,3,121,112,0.95,0,lalt,True,0.45058006,False
334,102,334,R,20,3,121,112,0.59,0,lalt,True,0.40225203,False
335,102,335,I,80,76,154,68,0.97,0,lalt,True,0.262173,False
336,102,336,T,40,157,193,131,0.96,0,lalt,True,0.36238667,False
337,102,337,A,20,0,168,107,0.99,0,lalt,True,0.28423751,False
338,102,338,T,40,0,168,107,0.64,0,lalt,True,0.41261113,False
339,102,339,T,40,138,154,91,0.85,0,lalt,True,0.48438159999999997,False
340,102,340,O,40,0,168,107,0.59,0,lalt,True,0.64850923,False
341,102,341,D,80,0,168,107,0.67,0,lalt,True,0.39608446,False
342,102,342,R,20,157,193,131,0.93,0,lalt,True,0.30046290000000003,False
343,102,343,A,20,138,154,91,0.84,0,lalt,True,0.32017379,False
344,102,344,O,40,75,124,89,0.9,0,lalt,True,0.29796197,False
345,102,345,T,40,157,193,131,0.85,0,lalt,True,0.38343943,False
346,102,346,O,40,138,154,91,0.5,0,lalt,True,0.27989285,False
347,102,347,I,80,3,121,112,0.81,0,lalt,True,0.58527161,False
348,102,348,R,20,3,121,112,0.59,0,lalt,True,0.32131481,False
349,102,349,T,40,75,124,89,0.86,0,lalt,True,0.41338929,False
350,102,350,T,0,245,127,32,0.76,1,ralt,True,0.49666404,False
351,102,351,T,40,157,193,131,0.89,0,lalt,True,0.38243628,False
352,102,352,1,0,245,127,32,0.68,1,ralt,True,0.47889509,False
353,102,353,R,20,0,168,107,0.68,0,lalt,True,0.59468582,False
354,102,354,T,40,3,121,112,0.9,0,lalt,True,0.68956805,False
355,102,355,I,80,138,154,91,0.85,0,lalt,True,0.43145896,False
356,102,356,I,80,3,121,112,0.65,0,lalt,True,0.44102825,False
357,102,357,D,80,0,168,107,0.64,0,lalt,True,0.31898616,False
358,102,358,R,20,138,154,91,0.93,0,lalt,True,0.3689418,False
359,102,359,T,40,157,193,131,0.73,0,lalt,True,0.29238003,False
360,102,360,R,20,3,121,112,0.92,0,lalt,True,0.32067952,False
361,102,361,O,40,138,154,91,0.51,0,lalt,True,0.33447806,False
362,102,362,1,0,157,193,131,0.67,1,ralt,True,0.51800143,False
363,102,363,R,20,76,154,68,0.66,0,lalt,True,0.33024825,False
364,102,364,8,0,245,127,32,0.59,1,ralt,True,0.4756884,False
365,102,365,I,80,75,124,89,0.58,0,lalt,True,0.3759813,False
366,102,366,D,80,0,168,107,1.0,0,lalt,True,0.21749581,False
367,102,367,A,20,138,154,91,0.81,0,lalt,True,0.29147592,False
368,102,368,T,40,157,193,131,0.87,0,lalt,True,0.47547562,False
369,102,369,R,20,138,154,91,0.53,0,lalt,True,0.41482021,False
370,102,370,T,40,138,154,91,0.8,0,lalt,True,0.40710631,False
371,102,371,T,40,138,154,91,0.99,0,lalt,True,0.4070572,False
372,102,372,T,40,157,193,131,0.76,0,lalt,True,0.33159401,False
373,102,373,I,80,3,121,112,0.58,0,lalt,True,0.34764102,False
374,102,374,T,40,76,154,68,0.99,0,lalt,True,0.47338416,False
375,102,375,A,20,76,154,68,0.79,0,lalt,True,0.42916859,False
376,102,376,I,80,3,121,112,0.61,0,lalt,True,0.32125017,False
377,102,377,R,20,157,193,131,0.74,0,missing,False,,True
378,102,378,O,40,138,154,91,0.84,0,lalt,True,0.51696361,False
379,102,379,R,20,0,168,107,0.51,0,lalt,True,0.77056894,False
380,102,380,D,80,0,168,107,0.52,0,lalt,True,0.41048609999999996,False
381,102,381,T,40,75,124,89,0.92,0,lalt,True,0.41655491,False
382,102,382,D,80,0,168,107,0.51,0,lalt,True,0.43029519,False
383,102,383,D,80,0,168,107,0.89,0,lalt,True,0.41985453,False
384,102,384,6,0,157,193,131,0.65,1,ralt,True,0.56192127,False
385,102,385,A,20,3,121,112,0.99,0,lalt,True,0.42959582,False
386,102,386,A,20,75,124,89,0.83,0,lalt,True,0.55953464,False
387,102,387,R,20,75,124,89,0.78,0,ralt,False,0.34551933,False
388,102,388,O,40,138,154,91,0.57,0,lalt,True,0.39204607,False
389,102,389,I,80,3,121,112,0.69,0,lalt,True,0.43584745,False
390,102,390,A,20,75,124,89,0.82,0,lalt,True,0.39164076,False
391,102,391,T,40,157,193,131,0.73,0,lalt,True,0.34996247,False
392,102,392,D,80,0,168,107,0.74,0,lalt,True,0.32584229,False
393,102,393,A,20,75,124,89,0.78,0,lalt,True,0.30768744,False
394,102,394,R,20,75,124,89,0.52,0,lalt,True,0.30552524,False
395,102,395,7,0,245,127,32,0.61,1,ralt,True,0.49120971,False
396,102,396,I,80,3,121,112,0.5,0,lalt,True,0.43906551,False
397,102,397,T,40,138,154,91,0.82,0,lalt,True,0.33269425,False
398,102,398,T,40,76,154,68,0.56,0,lalt,True,0.37679136,False
399,102,399,O,40,138,154,91,0.99,0,lalt,True,0.46083290000000005,False
400,102,400,R,20,157,193,131,0.87,0,lalt,True,0.40403472,False
401,102,401,O,40,0,168,107,0.66,0,lalt,True,0.69631266,False
402,102,402,A,20,138,154,91,0.77,0,lalt,True,0.69830203,False
403,102,403,I,80,3,121,112,0.8,0,lalt,True,0.7139429,False
404,102,404,D,80,0,168,107,0.59,0,lalt,True,0.45508672,False
405,102,405,T,40,157,193,131,0.55,0,lalt,True,0.34062261,False
406,102,406,D,80,0,168,107,0.64,0,lalt,True,0.26838108,False
407,102,407,O,40,138,154,91,0.81,0,lalt,True,0.25445021,False
408,102,408,A,20,3,121,112,0.9,0,lalt,True,0.06216151,False
409,102,409,5,0,245,127,32,0.58,1,ralt,True,0.4118571,False
410,102,410,T,40,76,154,68,0.93,0,lalt,True,0.42960664,False
411,102,411,T,40,157,193,131,0.7,0,lalt,True,0.29523245,False
412,102,412,T,40,75,124,89,0.77,0,lalt,True,0.25304426,False
413,102,413,R,20,3,121,112,0.67,0,lalt,True,0.52344661,False
414,102,414,A,20,3,121,112,0.59,0,missing,False,,True
415,102,415,A,20,138,154,91,0.98,0,lalt,True,0.42319993,False
416,102,416,O,0,245,127,32,0.53,1,ralt,True,0.41526214,False
417,102,417,O,40,76,154,68,0.91,0,lalt,True,0.38060476,False
418,102,418,R,20,0,168,107,0.6,0,lalt,True,0.53488209,False
419,102,419,T,40,0,168,107,0.84,0,lalt,True,0.49688819,False
420,102,420,R,20,157,193,131,0.84,0,lalt,True,0.34243637,False
421,102,421,D,80,157,193,131,0.68,0,lalt,True,0.29231289,False
422,102,422,1,0,157,193,131,0.54,1,ralt,True,0.45111492,False
423,102,423,A,20,75,124,89,0.89,0,lalt,True,0.34516145,False
424,102,424,A,20,157,193,131,0.8,0,lalt,True,0.44683213,False
425,102,425,R,20,76,154,68,0.63,0,lalt,True,0.65844915,False
426,102,426,D,80,0,168,107,0.57,0,lalt,True,0.35058222,False
427,102,427,A,20,0,168,107,0.65,0,lalt,True,0.29006329999999997,False
428,102,428,T,40,0,168,107,0.59,0,lalt,True,0.3417259,False
429,102,429,R,20,76,154,68,0.58,0,lalt,True,0.3299184,False
430,102,430,R,20,3,121,112,0.52,0,lalt,True,0.38591123,False
431,102,431,O,40,138,154,91,0.68,0,lalt,True,0.46568939,False
432,102,432,I,80,3,121,112,0.61,0,lalt,True,0.37187162,False
433,102,433,T,40,157,193,131,0.98,0,lalt,True,0.33560216,False
434,102,434,A,20,3,121,112,0.97,0,lalt,True,0.29712278,False
435,102,435,T,40,157,193,131,0.83,0,lalt,True,0.34093387,False
436,102,436,A,20,3,121,112,0.73,0,lalt,True,0.43321669,False
437,102,437,8,0,245,127,32,0.88,1,ralt,True,0.42871862,False
438,102,438,O,40,75,124,89,0.72,0,lalt,True,0.60643811,False
439,102,439,I,80,3,121,112,0.58,0,lalt,True,0.28177236,False
440,102,440,R,0,245,127,32,0.78,1,ralt,True,0.58176754,False
441,102,441,A,20,75,124,89,0.67,0,lalt,True,0.38798244,False
442,102,442,R,20,76,154,68,0.78,0,lalt,True,0.48410446,False
443,102,443,R,20,76,154,68,0.77,0,lalt,True,0.38336479999999995,False
444,102,444,I,80,3,121,112,0.99,0,lalt,True,0.44158641,False
445,102,445,D,80,0,168,107,0.85,0,lalt,True,0.36513838,False
446,102,446,R,20,76,154,68,0.56,0,lalt,True,0.28899552,False
447,102,447,O,40,157,193,131,0.75,0,lalt,True,0.34411559,False
448,102,448,R,20,75,124,89,0.95,0,lalt,True,0.38004021,False
449,102,449,O,40,3,121,112,0.66,0,lalt,True,0.335555,False
450,102,450,D,80,0,168,107,0.76,0,lalt,True,0.42980832,False
451,102,451,I,80,3,121,112,0.75,0,lalt,True,0.30358636,False
452,102,452,R,20,3,121,112,0.97,0,lalt,True,0.37938245,False
453,102,453,O,40,157,193,131,0.57,0,lalt,True,0.58733367,False
454,102,454,5,0,157,193,131,0.67,1,ralt,True,0.49515072,False
455,102,455,O,40,138,154,91,0.57,0,lalt,True,0.49864369999999997,False
456,102,456,A,0,245,127,32,0.62,1,ralt,True,0.62693021,False
457,102,457,I,80,75,124,89,0.69,0,lalt,True,0.37260733,False
458,102,458,D,80,0,168,107,0.97,0,lalt,True,0.47255523,False
459,102,459,O,40,3,121,112,0.69,0,lalt,True,0.27637823,False
460,102,460,8,0,157,193,131,0.96,1,ralt,True,0.45619529,False
461,102,461,R,20,157,193,131,0.65,0,lalt,True,0.33426666,False
462,102,462,D,80,0,168,107,0.57,0,lalt,True,0.44156866,False
463,102,463,R,20,157,193,131,0.91,0,lalt,True,0.41383593,False
464,102,464,A,20,75,124,89,0.89,0,lalt,True,0.32663848,False
465,102,465,I,80,157,193,131,0.58,0,lalt,True,0.38664001,False
466,102,466,O,40,3,121,112,0.99,0,lalt,True,0.34400656,False
467,102,467,D,80,0,168,107,0.72,0,lalt,True,0.3396275,False
468,102,468,A,20,157,193,131,0.92,0,lalt,True,0.27007111,False
469,102,469,O,40,75,124,89,0.77,0,lalt,True,0.23941023,False
470,102,470,I,80,3,121,112,0.89,0,lalt,True,0.2474895,False
471,102,471,I,80,3,121,112,0.56,0,lalt,True,0.36104784,False
472,102,472,I,80,3,121,112,0.8,0,lalt,True,0.37878406,False
473,102,473,T,40,138,154,91,0.71,0,lalt,True,0.35513716,False
474,102,474,A,20,75,124,89,0.7,0,lalt,True,0.35453044,False
475,102,475,A,0,245,127,32,0.93,1,ralt,True,0.43827792,False
476,102,476,I,80,3,121,112,0.56,0,lalt,True,0.26475882,False
477,102,477,D,80,0,168,107,0.76,0,lalt,True,0.37011694,False
478,102,478,I,80,3,121,112,0.72,0,lalt,True,0.30461309,False
479,102,479,R,20,157,193,131,0.57,0,lalt,True,0.33384138,False
480,102,480,O,40,138,154,91,0.62,0,lalt,True,0.37929396,False
481,102,481,I,80,75,124,89,0.86,0,lalt,True,0.38090604,False
482,102,482,D,80,0,168,107,0.67,0,lalt,True,0.39046339,False
483,102,483,A,20,3,121,112,0.9,0,lalt,True,0.27833792,False
484,102,484,T,40,157,193,131,0.69,0,lalt,True,0.34854846,False
485,102,485,D,80,3,121,112,0.68,0,lalt,True,0.32034079,False
486,102,486,I,80,3,121,112,0.83,0,lalt,True,0.26614203,False
487,102,487,I,80,3,121,112,0.99,0,lalt,True,0.30346513,False
488,102,488,2,0,3,121,112,0.59,1,lalt,False,0.28187168,False
489,102,489,A,20,138,154,91,0.53,0,lalt,True,0.5575031,False
490,102,490,D,80,0,168,107,0.71,0,lalt,True,0.41311298,False
491,102,491,A,20,3,121,112,0.71,0,lalt,True,0.29273762,False
492,102,492,D,80,0,168,107,0.58,0,lalt,True,0.31326633,False
493,102,493,D,80,0,168,107,0.74,0,lalt,True,0.35698116,False
494,102,494,A,20,75,124,89,0.8,0,lalt,True,0.3851855,False
495,102,495,D,80,0,168,107,0.56,0,lalt,True,0.37080494,False
496,102,496,R,20,3,121,112,0.79,0,lalt,True,0.2846209,False
497,102,497,6,0,245,127,32,0.98,1,ralt,True,0.368529,False
498,102,498,I,0,245,127,32,0.78,1,lalt,False,0.29955408,False
499,102,499,T,40,138,154,91,0.75,0,lalt,True,0.5007973,False
500,102,500,I,80,3,121,112,0.52,0,lalt,True,0.34868495,False
501,102,501,O,40,3,121,112,0.67,0,lalt,True,0.41886442,False
502,102,502,R,20,3,121,112,0.54,0,lalt,True,0.33889595,False
503,102,503,O,40,76,154,68,0.64,0,lalt,True,0.57283326,False
504,102,504,D,80,157,193,131,0.65,0,lalt,True,0.40253333,False
505,102,505,R,20,3,121,112,0.53,0,lalt,True,0.34210069,False
506,102,506,D,80,0,168,107,0.57,0,lalt,True,0.338125,False
507,102,507,T,40,0,168,107,0.66,0,lalt,True,0.35804035,False
508,102,508,D,80,0,168,107,0.65,0,lalt,True,0.35575996,False
509,102,509,A,20,157,193,131,0.52,0,lalt,True,0.39551020000000003,False
510,102,510,O,40,138,154,91,0.61,0,lalt,True,0.35777541,False
511,102,511,D,80,0,168,107,0.71,0,lalt,True,0.34554069,False
512,102,512,O,40,138,154,91,0.92,0,lalt,True,0.33324159999999997,False
513,102,513,A,20,0,168,107,0.8,0,lalt,True,0.32289998,False
514,102,514,A,0,245,127,32,0.6,1,ralt,True,0.55897952,False
515,102,515,T,40,157,193,131,0.71,0,lalt,True,0.44786412,False
516,102,516,R,20,76,154,68,0.81,0,lalt,True,0.47567703,False
517,102,517,R,20,76,154,68,0.82,0,lalt,True,0.4850438,False
518,102,518,R,20,75,124,89,0.87,0,lalt,True,0.3833587,False
519,102,519,A,20,76,154,68,0.55,0,lalt,True,0.37936331,False
520,102,520,D,80,0,168,107,0.53,0,lalt,True,0.33890982,False
521,102,521,T,40,0,168,107,0.7,0,lalt,True,0.33894838,False
522,102,522,R,20,3,121,112,0.93,0,lalt,True,0.36088555,False
523,102,523,T,40,157,193,131,0.81,0,lalt,True,0.42462863,False
524,102,524,D,80,0,168,107,0.58,0,lalt,True,0.47248921,False
525,102,525,5,0,76,154,68,0.95,1,ralt,True,0.52257412,False
526,102,526,T,40,0,168,107,0.56,0,lalt,True,0.49394894,False
527,102,527,T,40,157,193,131,0.73,0,lalt,True,0.40597859999999997,False
528,102,528,O,40,138,154,91,0.57,0,lalt,True,0.36784738,False
529,102,529,I,80,3,121,112,0.77,0,lalt,True,0.5154661,False
530,102,530,R,20,76,154,68,0.83,0,lalt,True,0.43588546,False
531,102,531,I,80,3,121,112,0.64,0,lalt,True,0.4631954000000001,False
532,102,532,T,40,157,193,131,0.97,0,lalt,True,0.43008352,False
533,102,533,A,20,138,154,91,0.89,0,lalt,True,0.4380349,False
534,102,534,A,20,75,124,89,0.96,0,lalt,True,0.33943054,False
535,102,535,T,40,0,168,107,0.9,0,lalt,True,0.35181396,False
536,102,536,O,40,0,168,107,0.94,0,lalt,True,0.54149908,False
537,102,537,R,20,3,121,112,0.56,0,lalt,True,0.37161778,False
538,102,538,O,40,138,154,91,0.79,0,lalt,True,0.33335174,False
539,102,539,A,20,76,154,68,0.55,0,lalt,True,0.3290817,False
540,102,540,T,40,3,121,112,0.87,0,lalt,True,0.4370692,False
541,102,541,R,0,245,127,32,0.52,1,ralt,True,0.48504823,False
542,102,542,T,40,138,154,91,0.52,0,lalt,True,0.46682959,False
543,102,543,T,40,157,193,131,0.55,0,lalt,True,0.46601203,False
544,102,544,T,40,76,154,68,0.88,0,lalt,True,0.38242491,False
545,102,545,T,40,157,193,131,0.53,0,lalt,True,0.31183652,False
546,102,546,A,20,76,154,68,0.79,0,lalt,True,0.34612299,False
547,102,547,I,80,3,121,112,0.98,0,lalt,True,0.52195104,False
548,102,548,R,20,0,168,107,0.52,0,lalt,True,0.30775097,False
549,102,549,D,80,0,168,107,0.66,0,lalt,True,0.31450529,False
550,102,550,R,20,3,121,112,0.79,0,lalt,True,0.32863395,False
551,102,551,I,80,3,121,112,0.59,0,lalt,True,0.44809494,False
552,102,552,R,20,157,193,131,0.57,0,lalt,True,0.40426748,False
553,102,553,O,40,138,154,91,0.73,0,lalt,True,0.25196593,False
554,102,554,I,80,3,121,112,0.92,0,lalt,True,0.36781048,False
555,102,555,D,80,0,168,107,0.64,0,lalt,True,0.31790644,False
556,102,556,O,40,0,168,107,0.95,0,lalt,True,0.30361659999999996,False
557,102,557,O,40,138,154,91,0.96,0,lalt,True,0.29332464,False
558,102,558,A,20,75,124,89,0.67,0,lalt,True,0.24931491,False
559,102,559,I,80,157,193,131,0.64,0,lalt,True,0.41699213,False
560,102,560,O,40,157,193,131,0.87,0,lalt,True,0.35486224,False
561,102,561,R,20,0,168,107,0.96,0,lalt,True,0.3507495,False
562,102,562,1,0,245,127,32,0.88,1,ralt,True,0.41241804,False
563,102,563,T,40,157,193,131,0.93,0,lalt,True,0.39474203,False
564,102,564,D,0,245,127,32,0.62,1,ralt,True,0.61010282,False
565,102,565,I,80,3,121,112,0.72,0,lalt,True,0.532377,False
566,102,566,T,40,157,193,131,0.56,0,lalt,True,0.39933664,False
567,102,567,A,20,75,124,89,0.73,0,lalt,True,0.38117791,False
568,102,568,R,20,76,154,68,0.51,0,lalt,True,0.34893629,False
569,102,569,D,80,0,168,107,0.53,0,lalt,True,0.28082525,False
570,102,570,I,80,3,121,112,0.69,0,lalt,True,0.42467801,False
571,102,571,I,80,3,121,112,0.75,0,lalt,True,0.39389562,False
572,102,572,I,80,0,168,107,0.57,0,lalt,True,0.51400965,False
573,102,573,T,40,0,168,107,0.9,0,lalt,True,0.41202078,False
574,102,574,1,0,76,154,68,0.6,1,ralt,True,0.42201868,False
575,102,575,I,80,76,154,68,0.63,0,lalt,True,0.49957028,False
576,102,576,R,0,245,127,32,0.87,1,ralt,True,0.47571836,False
577,102,577,A,20,157,193,131,0.76,0,lalt,True,0.27557011,False
578,102,578,A,20,76,154,68,0.67,0,lalt,True,0.41110502,False
579,102,579,O,40,138,154,91,0.85,0,lalt,True,0.33324077,False
580,102,580,D,80,0,168,107,0.53,0,lalt,True,0.28515271,False
581,102,581,T,0,245,127,32,0.51,1,ralt,True,0.51675998,False
582,102,582,A,20,75,124,89,0.68,0,lalt,True,0.34038042,False
583,102,583,R,20,157,193,131,0.63,0,lalt,True,0.27438914,False
584,102,584,R,20,0,168,107,0.88,0,lalt,True,0.30942547,False
585,102,585,8,0,138,154,91,0.58,1,lalt,False,0.28910593,False
586,102,586,T,40,75,124,89,0.73,0,lalt,True,0.41889078,False
587,102,587,I,80,3,121,112,0.87,0,lalt,True,0.42694869,False
588,102,588,I,80,3,121,112,0.64,0,lalt,True,0.41673718,False
589,102,589,R,0,245,127,32,0.51,1,ralt,True,0.5164845,False
590,102,590,I,80,3,121,112,0.87,0,lalt,True,0.51239369,False
591,102,591,T,40,157,193,131,0.69,0,lalt,True,0.48021532,False
592,102,592,A,20,3,121,112,0.56,0,lalt,True,0.33621608,False
593,102,593,D,80,0,168,107,0.55,0,lalt,True,0.30570445,False
594,102,594,R,20,76,154,68,0.6,0,lalt,True,0.30203115,False
595,102,595,O,40,157,193,131,0.75,0,lalt,True,0.35608759999999995,False
596,102,596,I,0,245,127,32,0.82,1,ralt,True,0.46714224,False
597,102,597,I,80,3,121,112,0.68,0,lalt,True,0.39504635,False
598,102,598,I,80,3,121,112,0.84,0,lalt,True,0.47715595,False
599,102,599,T,40,157,193,131,0.96,0,lalt,True,0.26145116,False
600,102,600,O,40,138,154,91,0.92,0,lalt,True,0.31884467,False
601,102,601,O,40,138,154,91,0.99,0,lalt,True,0.34716359,False
602,102,602,A,20,157,193,131,0.73,0,lalt,True,0.53771509,False
603,102,603,A,20,75,124,89,0.98,0,lalt,True,0.2916052,False
604,102,604,A,20,76,154,68,0.99,0,lalt,True,0.30936388,False
605,102,605,I,80,3,121,112,0.82,0,lalt,True,0.35542151,False
606,102,606,A,20,138,154,91,0.81,0,lalt,True,0.53275595,False
607,102,607,R,20,138,154,91,0.81,0,lalt,True,0.4086421,False
608,102,608,O,40,157,193,131,1.0,0,lalt,True,0.43246655,False
609,102,609,O,40,138,154,91,0.84,0,lalt,True,0.35612893,False
610,102,610,D,80,0,168,107,0.83,0,lalt,True,0.36448506,False
611,102,611,O,40,0,168,107,0.62,0,lalt,True,0.27247467,False
612,102,612,R,20,157,193,131,0.91,0,lalt,True,0.34611994,False
613,102,613,D,80,138,154,91,0.77,0,lalt,True,0.28580631,False
614,102,614,R,20,76,154,68,0.59,0,lalt,True,0.27798116,False
615,102,615,I,80,3,121,112,0.91,0,lalt,True,0.46138329999999994,False
616,102,616,R,20,76,154,68,0.9,0,lalt,True,0.31717544,False
617,102,617,D,80,0,168,107,0.85,0,lalt,True,0.31651657,False
618,102,618,R,20,3,121,112,0.89,0,lalt,True,0.31640422,False
619,102,619,I,80,3,121,112,0.73,0,lalt,True,0.46016349,False
620,102,620,T,40,75,124,89,0.58,0,lalt,True,0.37585285,False
621,102,621,O,40,157,193,131,0.81,0,lalt,True,0.3579402,False
622,102,622,D,80,0,168,107,0.8,0,lalt,True,0.31316397,False
623,102,623,O,40,138,154,91,0.67,0,lalt,True,0.3195815,False
624,102,624,D,80,75,124,89,0.51,0,lalt,True,0.29910993,False
625,102,625,O,40,138,154,91,0.61,0,lalt,True,0.33913564,False
626,102,626,D,80,0,168,107,0.77,0,lalt,True,0.31073489,False
627,102,627,I,80,3,121,112,0.71,0,lalt,True,0.41458274,False
628,102,628,A,0,245,127,32,0.63,1,ralt,True,0.43897479,False
629,102,629,2,0,245,127,32,0.95,1,ralt,True,0.48785488,False
630,102,630,A,20,3,121,112,1.0,0,lalt,True,0.44010139,False
631,102,631,O,40,138,154,91,0.83,0,lalt,True,0.55429086,False
632,102,632,D,80,0,168,107,0.64,0,lalt,True,0.49792324,False
633,102,633,O,40,138,154,91,0.86,0,lalt,True,0.40368129,False
634,102,634,I,80,3,121,112,0.79,0,lalt,True,0.33489446,False
635,102,635,I,80,75,124,89,0.97,0,lalt,True,0.37651977,False
636,102,636,6,0,245,127,32,0.53,1,ralt,True,0.43437574,False
637,102,637,O,40,75,124,89,0.83,0,lalt,True,0.49005176,False
638,102,638,I,80,3,121,112,0.87,0,lalt,True,0.33828202,False
639,102,639,R,20,76,154,68,0.54,0,lalt,True,0.36198275,False
640,102,640,I,80,75,124,89,0.92,0,lalt,True,0.35985633,False
641,102,641,I,80,3,121,112,0.77,0,lalt,True,0.41924338,False
642,102,642,O,40,3,121,112,0.62,0,lalt,True,0.33300496,False
643,102,643,T,40,3,121,112,0.62,0,lalt,True,0.36761546,False
644,102,644,T,40,157,193,131,0.58,0,lalt,True,0.41093552,False
645,102,645,I,80,3,121,112,0.76,0,lalt,True,0.40681058,False
646,102,646,R,20,3,121,112,0.74,0,lalt,True,0.26066717,False
647,102,647,R,20,76,154,68,0.53,0,lalt,True,0.26071211,False
648,102,648,O,40,3,121,112,0.68,0,lalt,True,0.31082338,False
649,102,649,T,40,138,154,91,0.9,0,lalt,True,0.36839917,False
650,102,650,A,20,76,154,68,0.81,0,lalt,True,0.36243411,False
651,102,651,4,0,0,168,107,0.57,1,lalt,False,0.3711875,False
652,102,652,A,20,75,124,89,0.53,0,missing,False,,True
653,102,653,I,80,3,121,112,0.98,0,lalt,True,0.50460016,False
654,102,654,7,0,0,168,107,0.73,1,ralt,True,0.47466556,False
655,102,655,T,40,157,193,131,0.53,0,lalt,True,0.39425737,False
656,102,656,I,80,3,121,112,0.67,0,lalt,True,0.45035923,False
657,102,657,R,20,3,121,112,0.62,0,lalt,True,0.38653598,False
658,102,658,A,20,75,124,89,0.65,0,lalt,True,0.36775972,False
659,102,659,I,80,3,121,112,0.92,0,lalt,True,0.35153432,False
0,103,0,A,40,75,124,89,0.87,0,ralt,True,0.50266866,False
1,103,1,A,40,3,121,112,0.61,0,ralt,True,0.46829582,False
2,103,2,D,80,3,121,112,0.51,0,ralt,True,0.33732275,False
3,103,3,O,80,0,168,107,0.5,0,ralt,True,0.34526312,False
4,103,4,A,40,157,193,131,0.81,0,ralt,True,0.37812956,False
5,103,5,2,0,229,181,212,0.94,1,lalt,True,0.37527545,False
6,103,6,O,80,0,168,107,0.57,0,ralt,True,0.40979865,False
7,103,7,I,20,75,124,89,0.88,0,ralt,True,0.40063957,False
8,103,8,R,20,3,121,112,0.72,0,ralt,True,0.58658266,False
9,103,9,9,0,157,193,131,0.62,1,lalt,True,0.4164049,False
10,103,10,R,20,76,154,68,0.56,0,ralt,True,0.40285256,False
11,103,11,R,20,76,154,68,0.94,0,ralt,True,0.33079169,False
12,103,12,8,0,3,121,112,0.79,1,lalt,True,0.40388957,False
13,103,13,R,20,75,124,89,0.58,0,ralt,True,0.41669647,False
14,103,14,O,80,0,168,107,0.62,0,ralt,True,0.39523539,False
15,103,15,R,20,157,193,131,0.99,0,ralt,True,0.30129759,False
16,103,16,D,80,0,168,107,0.95,0,ralt,True,0.49308679,False
17,103,17,R,20,0,168,107,1.0,0,ralt,True,0.34890706,False
18,103,18,O,80,0,168,107,0.62,0,ralt,True,0.36486575,False
19,103,19,A,40,157,193,131,0.66,0,ralt,True,0.45451711,False
20,103,20,R,20,75,124,89,0.76,0,ralt,True,0.28238685,False
21,103,21,4,0,0,168,107,0.74,1,lalt,True,0.46654529,False
22,103,22,O,0,229,181,212,0.66,1,ralt,False,0.66608621,False
23,103,23,I,20,0,168,107,0.67,0,ralt,True,0.45802205,False
24,103,24,7,0,229,181,212,0.59,1,lalt,True,0.42111607,False
25,103,25,T,40,3,121,112,0.76,0,ralt,True,0.47291323,False
26,103,26,O,80,0,168,107,0.97,0,ralt,True,0.35547835,False
27,103,27,A,40,157,193,131,0.58,0,ralt,True,0.3452695,False
28,103,28,R,20,76,154,68,0.72,0,ralt,True,0.34697675,False
29,103,29,T,40,0,168,107,0.59,0,ralt,True,0.37788377,False
30,103,30,R,20,76,154,68,0.97,0,ralt,True,0.37779166,False
31,103,31,D,80,3,121,112,0.6,0,ralt,True,0.32931525,False
32,103,32,T,40,0,168,107,0.69,0,ralt,True,0.3415526,False
33,103,33,R,20,157,193,131,0.89,0,ralt,True,0.44529228,False
34,103,34,D,80,3,121,112,0.87,0,ralt,True,0.31708927,False
35,103,35,R,20,76,154,68,0.77,0,ralt,True,0.43248648,False
36,103,36,A,40,3,121,112,0.75,0,ralt,True,0.36488045,False
37,103,37,A,40,157,193,131,0.57,0,ralt,True,0.37232534,False
38,103,38,8,0,157,193,131,0.63,1,lalt,True,0.52828524,False
39,103,39,O,80,3,121,112,0.99,0,ralt,True,0.48420762,False
40,103,40,I,20,138,154,91,0.84,0,ralt,True,0.33622915,False
41,103,41,T,40,3,121,112,0.99,0,ralt,True,0.30191263,False
42,103,42,1,0,229,181,212,1.0,1,lalt,True,0.41892722,False
43,103,43,O,80,0,168,107,0.98,0,ralt,True,0.35517734,False
44,103,44,R,20,0,168,107,0.89,0,ralt,True,0.369909,False
45,103,45,R,20,3,121,112,0.99,0,ralt,True,0.34807923,False
46,103,46,D,80,3,121,112,0.64,0,ralt,True,0.33200097,False
47,103,47,R,20,138,154,91,0.84,0,ralt,True,0.33763707,False
48,103,48,O,80,0,168,107,0.73,0,ralt,True,0.39564653,False
49,103,49,D,80,3,121,112,0.71,0,ralt,True,0.39561934,False
50,103,50,R,20,3,121,112,0.92,0,ralt,True,0.35121604,False
51,103,51,R,20,157,193,131,0.62,0,ralt,True,0.40878245,False
52,103,52,I,20,138,154,91,0.76,0,ralt,True,0.36118269,False
53,103,53,O,80,75,124,89,0.71,0,ralt,True,0.36252292,False
54,103,54,A,0,229,181,212,0.81,1,ralt,False,0.57446349,False
55,103,55,D,80,3,121,112,0.59,0,ralt,True,0.44237129999999997,False
56,103,56,D,80,3,121,112,0.75,0,ralt,True,0.33035003,False
57,103,57,D,80,3,121,112,0.53,0,ralt,True,0.42005549,False
58,103,58,I,20,0,168,107,0.88,0,ralt,True,0.37614378,False
59,103,59,D,0,229,181,212,0.76,1,lalt,True,0.43503821,False
60,103,60,A,40,0,168,107,0.9,0,ralt,True,0.26060923,False
61,103,61,R,20,0,168,107,0.93,0,ralt,True,0.28199152,False
62,103,62,R,20,76,154,68,0.94,0,ralt,True,0.34840964,False
63,103,63,T,40,75,124,89,0.91,0,ralt,True,0.32778277,False
64,103,64,I,20,75,124,89,0.89,0,ralt,True,0.29219648,False
65,103,65,I,20,76,154,68,0.81,0,ralt,True,0.30168709,False
66,103,66,I,20,3,121,112,0.65,0,ralt,True,0.35722638,False
67,103,67,A,40,157,193,131,0.83,0,ralt,True,0.38103361,False
68,103,68,O,80,0,168,107,0.63,0,ralt,True,0.39715515,False
69,103,69,O,80,0,168,107,0.52,0,ralt,True,0.40695508,False
70,103,70,T,40,138,154,91,0.6,0,ralt,True,0.42920098,False
71,103,71,I,20,75,124,89,0.77,0,ralt,True,0.46259813,False
72,103,72,R,20,138,154,91,0.53,0,ralt,True,0.52872523,False
73,103,73,6,0,229,181,212,0.8,1,lalt,True,0.45946187,False
74,103,74,O,80,3,121,112,0.53,0,ralt,True,0.43453746,False
75,103,75,I,20,157,193,131,0.79,0,ralt,True,0.40349452,False
76,103,76,D,80,3,121,112,0.62,0,ralt,True,0.41923377,False
77,103,77,T,40,138,154,91,0.66,0,ralt,True,0.4705446,False
78,103,78,D,80,138,154,91,1.0,0,ralt,True,0.40877247,False
79,103,79,A,40,157,193,131,0.89,0,ralt,True,0.31433835,False
80,103,80,T,40,75,124,89,0.59,0,ralt,True,0.53417629,False
81,103,81,O,80,0,168,107,0.7,0,ralt,True,0.66210493,False
82,103,82,D,80,3,121,112,0.99,0,ralt,True,0.30373418,False
83,103,83,A,40,0,168,107,0.78,0,ralt,True,0.41602954,False
84,103,84,T,40,138,154,91,0.71,0,ralt,True,0.38944144,False
85,103,85,D,80,3,121,112,0.55,0,ralt,True,0.28976377,False
86,103,86,R,20,75,124,89,0.89,0,ralt,True,0.3454354,False
87,103,87,D,80,3,121,112,0.61,0,ralt,True,0.46117024,False
88,103,88,D,80,3,121,112,0.93,0,ralt,True,0.41503832,False
89,103,89,I,20,75,124,89,0.77,0,ralt,True,0.41683435,False
90,103,90,T,40,138,154,91,0.71,0,ralt,True,0.41011796,False
91,103,91,I,20,76,154,68,0.88,0,ralt,True,0.5216027,False
92,103,92,A,40,157,193,131,0.73,0,ralt,True,0.47122206,False
93,103,93,O,80,0,168,107,0.9,0,ralt,True,0.37540056,False
94,103,94,A,40,157,193,131,0.91,0,ralt,True,0.40711459,False
95,103,95,I,20,75,124,89,0.55,0,ralt,True,0.47909113,False
96,103,96,I,20,157,193,131,0.67,0,ralt,True,0.44472023,False
97,103,97,A,40,0,168,107,0.82,0,ralt,True,0.40439780000000003,False
98,103,98,O,80,76,154,68,0.88,0,ralt,True,0.35469075,False
99,103,99,T,40,138,154,91,0.89,0,ralt,True,0.35652839,False
100,103,100,D,80,138,154,91,0.79,0,ralt,True,0.33161813,False
101,103,101,I,20,76,154,68,0.74,0,ralt,True,0.39995073,False
102,103,102,O,80,0,168,107,0.98,0,ralt,True,0.38567349,False
103,103,103,A,40,3,121,112,0.67,0,ralt,True,0.35572248,False
104,103,104,O,0,229,181,212,0.84,1,lalt,True,0.45150847,False
105,103,105,R,20,76,154,68,0.74,0,ralt,True,0.33827486,False
106,103,106,A,40,76,154,68,0.55,0,ralt,True,0.40005393,False
107,103,107,O,0,229,181,212,0.82,1,lalt,True,0.47175832,False
108,103,108,R,20,3,121,112,0.79,0,ralt,True,0.41792766,False
109,103,109,D,80,3,121,112,0.54,0,ralt,True,0.46739031,False
110,103,110,T,40,0,168,107,0.65,0,ralt,True,0.42149753,False
111,103,111,A,40,157,193,131,0.68,0,ralt,True,0.43322165,False
112,103,112,A,40,157,193,131,0.9,0,ralt,True,0.40538958,False
113,103,113,O,80,0,168,107,0.55,0,ralt,True,0.37315428,False
114,103,114,O,80,0,168,107,0.56,0,ralt,True,0.4387626,False
115,103,115,I,20,157,193,131,0.76,0,ralt,True,1.20007336,False
116,103,116,I,20,76,154,68,0.59,0,ralt,True,0.83215015,False
117,103,117,I,20,75,124,89,0.83,0,ralt,True,0.37059562,False
118,103,118,T,40,138,154,91,0.75,0,ralt,True,0.39447248,False
119,103,119,A,40,75,124,89,0.87,0,ralt,True,0.5341344,False
120,103,120,R,20,0,168,107,0.55,0,ralt,True,0.41807775,False
121,103,121,O,80,0,168,107,0.58,0,ralt,True,0.72246165,False
122,103,122,T,40,0,168,107,0.73,0,ralt,True,0.38876175,False
123,103,123,O,0,229,181,212,1.0,1,lalt,True,0.44085075,False
124,103,124,T,40,138,154,91,0.61,0,ralt,True,0.62212594,False
125,103,125,I,20,157,193,131,0.86,0,ralt,True,0.37013815,False
126,103,126,D,80,3,121,112,0.99,0,ralt,True,0.40633809,False
127,103,127,D,80,3,121,112,0.51,0,ralt,True,0.38767537,False
128,103,128,A,40,157,193,131,0.64,0,ralt,True,0.38588322,False
129,103,129,O,80,0,168,107,0.94,0,ralt,True,0.37383424,False
130,103,130,D,80,3,121,112,0.81,0,ralt,True,0.27373573,False
131,103,131,A,40,157,193,131,0.98,0,ralt,True,0.30344844,False
132,103,132,T,40,157,193,131,0.95,0,ralt,True,0.30874192,False
133,103,133,I,20,0,168,107,0.9,0,ralt,True,0.29700004,False
134,103,134,O,80,0,168,107,0.75,0,ralt,True,0.35099382,False
135,103,135,A,0,229,181,212,0.86,1,ralt,False,0.27226678,False
136,103,136,I,20,76,154,68,0.75,0,ralt,True,0.81150636,False
137,103,137,O,80,0,168,107,0.81,0,ralt,True,0.34729662,False
138,103,138,A,40,157,193,131,0.89,0,ralt,True,0.30118717,False
139,103,139,T,40,138,154,91,0.96,0,ralt,True,0.31693863,False
140,103,140,O,80,0,168,107,0.9,0,ralt,True,0.39042157,False
141,103,141,I,20,0,168,107,0.59,0,ralt,True,0.3525804,False
142,103,142,O,80,0,168,107,0.75,0,ralt,True,0.36844671,False
143,103,143,A,40,75,124,89,0.71,0,ralt,True,0.58830684,False
144,103,144,I,20,76,154,68,0.92,0,ralt,True,0.31429008,False
145,103,145,A,40,157,193,131,0.64,0,ralt,True,0.27603222,False
146,103,146,O,80,0,168,107,0.52,0,ralt,True,0.35792715,False
147,103,147,R,20,76,154,68,0.7,0,ralt,True,0.26774702,False
148,103,148,D,80,3,121,112,0.9,0,ralt,True,0.28362498,False
149,103,149,T,40,75,124,89,0.51,0,ralt,True,0.34924939,False
150,103,150,I,20,75,124,89,0.84,0,ralt,True,0.31687676,False
151,103,151,1,0,229,181,212,0.94,1,lalt,True,0.44019769999999997,False
152,103,152,R,20,76,154,68,0.77,0,ralt,True,0.34214296,False
153,103,153,O,80,0,168,107,0.6,0,ralt,True,0.31339123,False
154,103,154,A,40,76,154,68,0.99,0,ralt,True,0.28358254,False
155,103,155,I,20,138,154,91,0.58,0,ralt,True,0.27522742,False
156,103,156,D,80,3,121,112,0.95,0,ralt,True,0.34144219,False
157,103,157,T,40,138,154,91,0.96,0,ralt,True,0.31304612,False
158,103,158,A,40,157,193,131,0.99,0,ralt,True,0.37070326,False
159,103,159,D,0,229,181,212,0.93,1,lalt,True,0.49295973,False
160,103,160,O,80,0,168,107,0.54,0,ralt,True,0.32828574,False
161,103,161,I,20,75,124,89,0.72,0,ralt,True,0.2627157,False
162,103,162,T,40,0,168,107,0.63,0,ralt,True,0.2683432,False
163,103,163,R,20,76,154,68,0.83,0,ralt,True,0.30421412,False
164,103,164,R,20,0,168,107,0.64,0,ralt,True,0.24611672,False
165,103,165,T,40,157,193,131,0.55,0,ralt,True,0.28999431,False
166,103,166,R,20,138,154,91,0.87,0,ralt,True,0.34598636,False
167,103,167,D,80,3,121,112,0.78,0,ralt,True,0.27455357,False
168,103,168,O,80,0,168,107,0.53,0,ralt,True,0.31997917,False
169,103,169,O,80,0,168,107,0.79,0,ralt,True,0.39806620000000004,False
170,103,170,I,20,0,168,107,0.77,0,ralt,True,0.36402654,False
171,103,171,T,40,76,154,68,0.54,0,ralt,True,0.48007626,False
172,103,172,D,80,3,121,112,0.95,0,ralt,True,0.6057231,False
173,103,173,R,0,229,181,212,0.8,1,lalt,True,0.41383597,False
174,103,174,R,20,3,121,112,0.8,0,ralt,True,0.34543956,False
175,103,175,R,20,138,154,91,0.74,0,ralt,True,0.3194787,False
176,103,176,T,40,75,124,89,0.63,0,ralt,True,0.3430296,False
177,103,177,I,20,3,121,112,0.82,0,ralt,True,0.70296916,False
178,103,178,6,0,0,168,107,0.7,1,lalt,True,0.50629262,False
179,103,179,4,0,229,181,212,0.75,1,lalt,True,0.44070122,False
180,103,180,I,20,157,193,131,0.88,0,ralt,True,0.42852657,False
181,103,181,T,40,76,154,68,0.77,0,ralt,True,0.37434331,False
182,103,182,A,40,157,193,131,0.53,0,ralt,True,0.36604257,False
183,103,183,T,40,75,124,89,0.73,0,ralt,True,0.36890695,False
184,103,184,T,40,3,121,112,0.67,0,ralt,True,0.31852992,False
185,103,185,A,0,229,181,212,0.87,1,ralt,False,0.26896352,False
186,103,186,D,80,3,121,112,0.58,0,ralt,True,0.89191098,False
187,103,187,T,40,138,154,91,0.86,0,ralt,True,0.49060081,False
188,103,188,I,20,138,154,91,1.0,0,ralt,True,0.42459689,False
189,103,189,D,80,3,121,112,0.61,0,ralt,True,0.39380667,False
190,103,190,R,20,0,168,107,0.69,0,ralt,True,0.45026173,False
191,103,191,R,20,76,154,68,0.89,0,ralt,True,0.34394093,False
192,103,192,A,40,157,193,131,0.91,0,ralt,True,0.72976312,False
193,103,193,R,20,76,154,68,0.77,0,ralt,True,0.38563798,False
194,103,194,A,40,76,154,68,0.72,0,ralt,True,0.44494411,False
195,103,195,R,20,0,168,107,0.7,0,ralt,True,0.35508385,False
196,103,196,R,0,229,181,212,0.69,1,lalt,True,0.44516577,False
197,103,197,O,80,0,168,107,0.62,0,ralt,True,0.29294358,False
198,103,198,D,80,3,121,112,0.54,0,ralt,True,0.31958024,False
199,103,199,D,80,138,154,91,0.63,0,ralt,True,0.33961065,False
200,103,200,R,20,0,168,107,0.99,0,ralt,True,0.31136356,False
201,103,201,A,40,0,168,107,0.73,0,ralt,True,0.31129115,False
202,103,202,A,40,76,154,68,0.85,0,ralt,True,0.25729349,False
203,103,203,I,20,0,168,107,0.56,0,ralt,True,0.32267432,False
204,103,204,I,20,75,124,89,0.68,0,ralt,True,0.42661874,False
205,103,205,I,20,138,154,91,0.88,0,ralt,True,0.32446508,False
206,103,206,O,80,75,124,89,0.87,0,ralt,True,0.3165519,False
207,103,207,I,20,76,154,68,0.74,0,ralt,True,0.32064082,False
208,103,208,A,40,157,193,131,0.91,0,ralt,True,0.29401249,False
209,103,209,T,40,138,154,91,0.61,0,ralt,True,0.30983302,False
210,103,210,A,40,3,121,112,1.0,0,ralt,True,0.53393687,False
211,103,211,I,20,76,154,68,0.79,0,ralt,True,0.48731003,False
212,103,212,T,40,0,168,107,0.71,0,ralt,True,0.38328184,False
213,103,213,A,40,138,154,91,0.72,0,ralt,True,0.36322396,False
214,103,214,O,80,0,168,107,0.94,0,ralt,True,0.35410289,False
215,103,215,A,40,75,124,89,0.55,0,ralt,True,0.36421658,False
216,103,216,O,80,0,168,107,0.85,0,ralt,True,0.45634587,False
217,103,217,2,0,0,168,107,0.53,1,lalt,True,0.73789851,False
218,103,218,R,20,75,124,89,0.56,0,ralt,True,0.4656223,False
219,103,219,D,0,229,181,212,0.76,1,lalt,True,0.48737994,False
220,103,220,D,80,3,121,112,0.82,0,ralt,True,0.56487412,False
221,103,221,A,40,157,193,131,0.87,0,ralt,True,0.37824747,False
222,103,222,D,80,3,121,112,0.82,0,ralt,True,0.34593171,False
223,103,223,D,80,3,121,112,0.75,0,ralt,True,0.28905357,False
224,103,224,O,80,0,168,107,0.76,0,ralt,True,0.3466666,False
225,103,225,O,80,0,168,107,0.63,0,ralt,True,0.38248536,False
226,103,226,O,80,0,168,107,0.82,0,ralt,True,0.31858041,False
227,103,227,R,20,76,154,68,0.89,0,ralt,True,0.35035381,False
228,103,228,D,80,3,121,112,0.85,0,ralt,True,0.28613204,False
229,103,229,A,40,157,193,131,0.88,0,ralt,True,0.30998477,False
230,103,230,D,80,3,121,112,0.69,0,ralt,True,0.32387861,False
231,103,231,I,20,75,124,89,0.97,0,ralt,True,0.29565177,False
232,103,232,I,20,75,124,89,0.55,0,ralt,True,0.23720205,False
233,103,233,O,80,0,168,107,0.9,0,ralt,True,0.311406,False
234,103,234,R,20,76,154,68,0.54,0,ralt,True,0.26097488,False
235,103,235,A,40,75,124,89,0.98,0,ralt,True,0.30659079,False
236,103,236,A,40,157,193,131,0.71,0,ralt,True,0.28278245,False
237,103,237,R,20,3,121,112,0.86,0,ralt,True,0.29667546,False
238,103,238,D,80,3,121,112,0.83,0,ralt,True,0.29552471,False
239,103,239,R,20,75,124,89,0.59,0,ralt,True,0.24338245,False
240,103,240,A,40,3,121,112,0.5,0,ralt,True,0.35113586,False
241,103,241,D,80,3,121,112,0.75,0,ralt,True,0.30916471,False
242,103,242,T,0,229,181,212,0.55,1,lalt,True,0.39301935,False
243,103,243,D,80,3,121,112,0.5,0,ralt,True,0.30890172,False
244,103,244,D,0,229,181,212,0.71,1,lalt,True,0.52467986,False
245,103,245,D,80,3,121,112,0.61,0,ralt,True,0.31862286,False
246,103,246,I,20,157,193,131,0.93,0,ralt,True,0.38439402,False
247,103,247,T,40,138,154,91,0.99,0,ralt,True,0.32421707,False
248,103,248,A,40,157,193,131,0.98,0,ralt,True,0.27605331,False
249,103,249,I,20,138,154,91,0.97,0,ralt,True,0.39586875,False
250,103,250,D,80,3,121,112,0.52,0,ralt,True,0.26761802,False
251,103,251,A,40,157,193,131,0.96,0,ralt,True,0.27772089,False
252,103,252,T,40,138,154,91,0.91,0,ralt,True,0.27096511,False
253,103,253,R,20,3,121,112,1.0,0,ralt,True,0.25132809,False
254,103,254,T,40,138,154,91,0.59,0,ralt,True,0.31417135,False
255,103,255,I,20,0,168,107,0.85,0,ralt,True,0.33417679,False
256,103,256,D,80,3,121,112,0.82,0,ralt,True,0.32979214,False
257,103,257,R,20,3,121,112,0.96,0,ralt,True,0.28795387,False
258,103,258,T,40,0,168,107,0.84,0,ralt,True,0.39759958,False
259,103,259,A,40,138,154,91,0.74,0,ralt,True,0.31140157,False
260,103,260,R,20,75,124,89,0.66,0,ralt,True,0.28926663,False
261,103,261,D,80,3,121,112,0.92,0,ralt,True,0.44684806,False
262,103,262,T,40,3,121,112,0.78,0,ralt,True,0.27688335,False
263,103,263,D,80,3,121,112,0.51,0,ralt,True,0.61853583,False
264,103,264,7,0,157,193,131,0.53,1,ralt,False,0.31853353,False
265,103,265,I,20,75,124,89,1.0,0,ralt,True,0.45065262,False
266,103,266,O,80,0,168,107,0.62,0,ralt,True,0.37245157,False
267,103,267,I,20,75,124,89,0.51,0,ralt,True,0.28998016,False
268,103,268,R,20,0,168,107,0.82,0,ralt,True,0.31393138,False
269,103,269,O,80,0,168,107,0.63,0,ralt,True,0.32394629999999996,False
270,103,270,O,80,0,168,107,0.58,0,ralt,True,0.34100719,False
271,103,271,D,80,3,121,112,0.62,0,ralt,True,0.30477729,False
272,103,272,R,20,0,168,107,0.89,0,ralt,True,0.22229229,False
273,103,273,6,0,229,181,212,0.77,1,lalt,True,0.39841409,False
274,103,274,T,40,138,154,91,0.52,0,ralt,True,0.30234097,False
275,103,275,D,80,3,121,112,0.5,0,ralt,True,0.45199340000000005,False
276,103,276,O,80,0,168,107,0.95,0,ralt,True,0.38161786,False
277,103,277,8,0,157,193,131,0.87,1,ralt,False,0.30400578,False
278,103,278,R,20,138,154,91,0.56,0,ralt,True,0.42190534,False
279,103,279,A,40,157,193,131,0.52,0,ralt,True,0.42371219,False
280,103,280,I,20,3,121,112,0.78,0,ralt,True,0.36147454,False
281,103,281,I,20,75,124,89,0.62,0,ralt,True,0.33687222,False
282,103,282,T,40,3,121,112,0.67,0,ralt,True,0.27701125,False
283,103,283,D,80,3,121,112,0.75,0,ralt,True,0.23268089999999997,False
284,103,284,D,80,3,121,112,0.66,0,ralt,True,0.26665176,False
285,103,285,A,40,157,193,131,0.83,0,ralt,True,0.33064105,False
286,103,286,R,20,76,154,68,0.54,0,ralt,True,0.31136245,False
287,103,287,T,40,3,121,112,0.76,0,ralt,True,0.56552745,False
288,103,288,O,80,0,168,107,0.62,0,ralt,True,0.66338773,False
289,103,289,4,0,75,124,89,0.88,1,ralt,False,0.29695843,False
290,103,290,T,40,157,193,131,0.84,0,ralt,True,0.55072034,False
291,103,291,T,40,138,154,91,0.8,0,ralt,True,0.35061264,False
292,103,292,I,20,0,168,107,0.61,0,ralt,True,0.29867484,False
293,103,293,A,40,157,193,131,0.51,0,ralt,True,0.40630952,False
294,103,294,T,40,75,124,89,0.56,0,ralt,True,0.35421719,False
295,103,295,A,40,157,193,131,0.95,0,ralt,True,0.39609373,False
296,103,296,T,40,138,154,91,0.63,0,ralt,True,0.36781529,False
297,103,297,T,40,157,193,131,0.99,0,ralt,True,0.31771319,False
298,103,298,R,20,76,154,68,0.54,0,ralt,True,0.37336207,False
299,103,299,I,20,76,154,68,0.66,0,ralt,True,0.57942878,False
300,103,300,I,20,3,121,112,0.81,0,ralt,True,0.45934286,False
301,103,301,5,0,229,181,212,0.75,1,lalt,True,0.49245926,False
302,103,302,T,40,157,193,131,0.6,0,ralt,True,0.4009808,False
303,103,303,T,40,75,124,89,0.72,0,ralt,True,0.29358831,False
304,103,304,D,80,0,168,107,0.82,0,ralt,True,0.32807434,False
305,103,305,D,80,76,154,68,0.86,0,ralt,True,0.35546725,False
306,103,306,I,20,75,124,89,0.73,0,ralt,True,0.42777309,False
307,103,307,T,40,0,168,107,0.59,0,ralt,True,0.32282358,False
308,103,308,9,0,229,181,212,0.86,1,lalt,True,0.45148655,False
309,103,309,1,0,157,193,131,0.67,1,lalt,True,0.43925391,False
310,103,310,D,80,3,121,112,0.87,0,ralt,True,0.3829248,False
311,103,311,D,80,3,121,112,0.99,0,ralt,True,0.32878066,False
312,103,312,I,20,75,124,89,0.71,0,ralt,True,0.30663157,False
313,103,313,T,40,138,154,91,0.8,0,ralt,True,0.3501574,False
314,103,314,A,40,75,124,89,0.64,0,ralt,True,0.42452198,False
315,103,315,R,20,76,154,68,0.76,0,ralt,True,0.37396907,False
316,103,316,O,80,0,168,107,0.52,0,ralt,True,0.38804628,False
317,103,317,D,80,3,121,112,0.54,0,ralt,True,0.42178605,False
318,103,318,D,80,3,121,112,0.58,0,ralt,True,0.35362461,False
319,103,319,R,20,3,121,112,0.86,0,ralt,True,0.37446648,False
320,103,320,A,40,0,168,107,0.91,0,ralt,True,0.35243087,False
321,103,321,I,20,75,124,89,0.94,0,ralt,True,0.34049368,False
322,103,322,O,80,0,168,107,0.88,0,ralt,True,0.42620371,False
323,103,323,I,20,75,124,89,0.9,0,ralt,True,0.45190185,False
324,103,324,A,40,75,124,89,0.83,0,ralt,True,0.31769821,False
325,103,325,I,20,157,193,131,0.61,0,ralt,True,0.52962463,False
326,103,326,7,0,0,168,107,0.91,1,lalt,True,0.58580477,False
327,103,327,O,80,0,168,107,0.7,0,ralt,True,0.46543005,False
328,103,328,T,40,138,154,91,0.72,0,ralt,True,0.36319234,False
329,103,329,A,40,3,121,112,0.54,0,ralt,True,0.41694143,False
330,103,330,D,80,138,154,91,0.66,0,ralt,True,0.31456223,False
331,103,331,D,80,3,121,112,0.62,0,ralt,True,0.41452814,False
332,103,332,6,0,229,181,212,0.73,1,lalt,True,0.46685406,False
333,103,333,A,40,3,121,112,0.82,0,ralt,True,0.36665484,False
334,103,334,O,80,0,168,107,0.93,0,ralt,True,0.42826218,False
335,103,335,O,80,0,168,107,0.63,0,ralt,True,0.32709143,False
336,103,336,I,20,3,121,112,0.51,0,ralt,True,0.31305139,False
337,103,337,I,20,0,168,107,0.86,0,ralt,True,0.46698694,False
338,103,338,O,80,0,168,107,0.58,0,ralt,True,0.29085432,False
339,103,339,R,20,75,124,89,0.59,0,ralt,True,0.37251066,False
340,103,340,I,20,75,124,89,0.95,0,ralt,True,0.32021193,False
341,103,341,4,0,229,181,212,0.7,1,lalt,True,0.40834662,False
342,103,342,O,80,0,168,107,0.91,0,ralt,True,0.34229165,False
343,103,343,I,20,157,193,131,0.9,0,ralt,True,0.32580586,False
344,103,344,O,80,76,154,68,0.51,0,ralt,True,0.45177673,False
345,103,345,6,0,229,181,212,0.92,1,lalt,True,0.43167086,False
346,103,346,D,80,3,121,112,0.67,0,ralt,True,0.26163209,False
347,103,347,O,80,0,168,107,0.56,0,ralt,True,0.37702126,False
348,103,348,A,40,0,168,107,0.82,0,ralt,True,0.32333847,False
349,103,349,O,80,0,168,107,0.92,0,ralt,True,0.28116508,False
350,103,350,D,80,3,121,112,0.95,0,ralt,True,0.32706758,False
351,103,351,T,40,157,193,131,0.75,0,ralt,True,0.33172799,False
352,103,352,D,80,75,124,89,1.0,0,ralt,True,0.32775947,False
353,103,353,T,40,138,154,91,0.54,0,ralt,True,0.21337179,False
354,103,354,O,80,76,154,68,0.95,0,ralt,True,0.30712705,False
355,103,355,O,0,229,181,212,0.55,1,ralt,False,0.23315696,False
356,103,356,R,20,138,154,91,0.66,0,ralt,True,0.81878868,False
357,103,357,I,0,229,181,212,0.7,1,lalt,True,0.44908075,False
358,103,358,R,20,0,168,107,0.81,0,ralt,True,0.33492278,False
359,103,359,A,40,76,154,68,0.69,0,ralt,True,0.47477778,False
360,103,360,O,80,0,168,107,0.65,0,ralt,True,0.54257246,False
361,103,361,I,20,157,193,131,0.53,0,ralt,True,0.33440316,False
362,103,362,D,80,3,121,112,0.72,0,ralt,True,0.35414311,False
363,103,363,R,20,3,121,112,0.92,0,ralt,True,0.35208437,False
364,103,364,O,80,0,168,107,0.98,0,ralt,True,0.27401481,False
365,103,365,O,0,229,181,212,0.95,1,lalt,True,0.40168517,False
366,103,366,A,40,157,193,131,0.74,0,ralt,True,0.38870433,False
367,103,367,A,40,138,154,91,0.77,0,ralt,True,0.34844737,False
368,103,368,I,20,75,124,89,0.55,0,ralt,True,0.33639117,False
369,103,369,A,40,157,193,131,0.53,0,ralt,True,0.32432942,False
370,103,370,D,80,3,121,112,0.94,0,ralt,True,0.2999962,False
371,103,371,I,20,138,154,91,0.96,0,ralt,True,0.25763416,False
372,103,372,I,20,3,121,112,0.65,0,ralt,True,0.30565616,False
373,103,373,O,80,75,124,89,0.55,0,ralt,True,0.37555342,False
374,103,374,I,20,157,193,131,0.87,0,ralt,True,0.41311772,False
375,103,375,A,40,157,193,131,0.64,0,ralt,True,0.64135322,False
376,103,376,A,40,0,168,107,0.55,0,ralt,True,0.37700406,False
377,103,377,R,20,3,121,112,0.75,0,ralt,True,0.37725513,False
378,103,378,9,0,76,154,68,0.87,1,lalt,True,0.78053693,False
379,103,379,I,20,0,168,107,0.83,0,ralt,True,0.29669127,False
380,103,380,1,0,229,181,212,0.91,1,lalt,True,0.41232707,False
381,103,381,A,40,157,193,131,0.61,0,ralt,True,0.39204504,False
382,103,382,I,20,157,193,131,0.89,0,ralt,True,0.30407902,False
383,103,383,A,40,3,121,112,0.96,0,ralt,True,0.35699113,False
384,103,384,O,80,0,168,107,0.83,0,ralt,True,0.47052185,False
385,103,385,A,40,76,154,68,0.53,0,ralt,True,0.44678481,False
386,103,386,T,40,75,124,89,0.94,0,ralt,True,0.36253707,False
387,103,387,O,80,0,168,107,0.88,0,ralt,True,0.44793056,False
388,103,388,A,40,0,168,107,0.53,0,ralt,True,0.38219518,False
389,103,389,I,20,75,124,89,0.71,0,ralt,True,0.28999736,False
390,103,390,R,20,75,124,89,0.51,0,ralt,True,0.3497679,False
391,103,391,T,0,229,181,212,0.81,1,lalt,True,0.58363283,False
392,103,392,T,40,0,168,107,0.58,0,ralt,True,0.46148705,False
393,103,393,A,40,138,154,91,0.74,0,ralt,True,0.28158621,False
394,103,394,A,40,75,124,89,0.69,0,ralt,True,0.28957041,False
395,103,395,D,80,3,121,112,0.89,0,ralt,True,0.32113186,False
396,103,396,A,40,157,193,131,0.76,0,ralt,True,0.24933065,False
397,103,397,T,40,75,124,89,0.51,0,ralt,True,0.3313113,False
398,103,398,D,80,3,121,112,0.8,0,ralt,True,0.2828593,False
399,103,399,O,80,0,168,107,0.87,0,ralt,True,0.3136645,False
400,103,400,O,80,75,124,89,0.79,0,ralt,True,0.37535534,False
401,103,401,O,80,0,168,107,0.93,0,ralt,True,0.26726375,False
402,103,402,A,40,76,154,68,0.66,0,ralt,True,0.26945122,False
403,103,403,T,40,138,154,91,0.56,0,ralt,True,0.25429706,False
404,103,404,T,40,138,154,91,0.86,0,ralt,True,0.29865459,False
405,103,405,O,80,157,193,131,0.69,0,ralt,True,0.37113132,False
406,103,406,O,80,0,168,107,0.79,0,ralt,True,0.30849391,False
407,103,407,O,80,0,168,107,0.99,0,ralt,True,0.50464779,False
408,103,408,R,20,76,154,68,0.58,0,ralt,True,0.27823357,False
409,103,409,R,20,76,154,68,0.84,0,ralt,True,0.35009636,False
410,103,410,T,40,138,154,91,0.84,0,ralt,True,0.35793353,False
411,103,411,D,80,157,193,131,0.72,0,ralt,True,0.29581101,False
412,103,412,O,80,157,193,131,0.59,0,ralt,True,0.35758842,False
413,103,413,I,20,75,124,89,0.54,0,ralt,True,0.28533418,False
414,103,414,A,40,76,154,68,0.52,0,ralt,True,0.26339816,False
415,103,415,T,40,138,154,91,0.64,0,ralt,True,0.37443347,False
416,103,416,O,80,3,121,112,0.55,0,ralt,True,0.38853649,False
417,103,417,T,40,0,168,107,0.94,0,ralt,True,0.33586823,False
418,103,418,O,80,0,168,107,0.98,0,ralt,True,0.30546862,False
419,103,419,D,80,3,121,112,0.87,0,ralt,True,0.30379605,False
420,103,420,O,80,0,168,107,1.0,0,ralt,True,0.33132489,False
421,103,421,A,40,157,193,131,0.83,0,ralt,True,0.30111144,False
422,103,422,A,40,157,193,131,0.55,0,ralt,True,0.35917804,False
423,103,423,D,80,3,121,112,0.98,0,ralt,True,0.40114559,False
424,103,424,T,40,138,154,91,0.59,0,ralt,True,0.42278088,False
425,103,425,T,40,157,193,131,0.78,0,ralt,True,0.35694508,False
426,103,426,O,80,0,168,107,0.59,0,ralt,True,0.34472991,False
427,103,427,R,20,0,168,107,0.7,0,ralt,True,0.40054497,False
428,103,428,1,0,229,181,212,0.92,1,lalt,True,0.44253332,False
429,103,429,6,0,157,193,131,0.62,1,ralt,False,0.30820678,False
430,103,430,T,40,76,154,68,0.66,0,missing,False,,True
431,103,431,R,20,0,168,107,0.55,0,ralt,True,0.56544922,False
432,103,432,A,40,0,168,107,0.93,0,ralt,True,0.35463027,False
433,103,433,R,20,76,154,68,0.72,0,ralt,True,0.29463696,False
434,103,434,T,40,0,168,107,0.56,0,ralt,True,0.30458614,False
435,103,435,D,80,3,121,112,0.99,0,ralt,True,0.38226842,False
436,103,436,O,80,0,168,107,0.57,0,ralt,True,0.45352671,False
437,103,437,A,40,3,121,112,0.91,0,ralt,True,0.33764373,False
438,103,438,D,80,138,154,91,0.89,0,ralt,True,0.24597024,False
439,103,439,D,80,0,168,107,0.99,0,ralt,True,0.31929893,False
440,103,440,I,20,157,193,131,0.65,0,ralt,True,0.56204054,False
441,103,441,8,0,75,124,89,0.77,1,ralt,False,0.39075558,False
442,103,442,O,80,0,168,107,0.89,0,ralt,True,0.37519472,False
443,103,443,O,80,0,168,107,0.62,0,ralt,True,0.25320429,False
444,103,444,D,80,3,121,112,0.75,0,ralt,True,0.5667445,False
445,103,445,D,80,3,121,112,0.51,0,ralt,True,0.29696869,False
446,103,446,O,80,0,168,107,0.68,0,ralt,True,0.36665123,False
447,103,447,A,40,157,193,131,0.98,0,ralt,True,0.42098291,False
448,103,448,O,80,0,168,107,0.89,0,ralt,True,0.32277614,False
449,103,449,D,80,3,121,112,0.89,0,ralt,True,0.30252407,False
450,103,450,T,40,138,154,91,0.65,0,ralt,True,0.24200283,False
451,103,451,T,40,76,154,68,0.65,0,ralt,True,0.3321788,False
452,103,452,3,0,0,168,107,0.68,1,lalt,True,0.55881523,False
453,103,453,O,80,0,168,107,0.51,0,ralt,True,0.45391427,False
454,103,454,R,20,157,193,131,0.65,0,ralt,True,0.31737335,False
455,103,455,A,40,157,193,131,0.9,0,ralt,True,0.34180783,False
456,103,456,R,20,157,193,131,0.65,0,ralt,True,0.36341372,False
457,103,457,D,80,3,121,112,0.95,0,ralt,True,0.33510144,False
458,103,458,R,20,0,168,107,0.67,0,ralt,True,0.26688174,False
459,103,459,T,40,138,154,91,0.7,0,ralt,True,0.37545521,False
460,103,460,4,0,157,193,131,0.88,1,lalt,True,0.56145545,False
461,103,461,A,40,157,193,131,0.56,0,ralt,True,0.51961997,False
462,103,462,O,80,0,168,107,0.62,0,ralt,True,0.36117076,False
463,103,463,6,0,229,181,212,0.84,1,lalt,True,0.46340071,False
464,103,464,T,40,138,154,91,0.66,0,ralt,True,0.38535501,False
465,103,465,A,40,3,121,112,0.99,0,ralt,True,0.45521871,False
466,103,466,T,40,0,168,107,0.6,0,ralt,True,0.40253159,False
467,103,467,D,80,3,121,112,0.53,0,ralt,True,0.90036374,False
468,103,468,T,40,76,154,68,0.84,0,ralt,True,0.36828885,False
469,103,469,O,80,0,168,107,0.8,0,ralt,True,0.29464778,False
470,103,470,R,20,157,193,131,0.64,0,ralt,True,0.37215695,False
471,103,471,A,40,138,154,91,0.79,0,ralt,True,0.27825521,False
472,103,472,R,20,3,121,112,0.9,0,ralt,True,0.41370558,False
473,103,473,D,80,157,193,131,0.54,0,ralt,True,0.36715031,False
474,103,474,A,40,157,193,131,0.99,0,ralt,True,0.38582802,False
475,103,475,T,40,3,121,112,0.52,0,ralt,True,0.27043968,False
476,103,476,I,20,138,154,91,0.64,0,ralt,True,0.39204449,False
477,103,477,A,40,157,193,131,0.77,0,ralt,True,0.5103390999999999,False
478,103,478,I,20,75,124,89,0.57,0,ralt,True,0.42206846,False
479,103,479,I,20,76,154,68,0.52,0,ralt,True,0.33548733,False
480,103,480,D,80,3,121,112,0.76,0,ralt,True,0.36778422,False
481,103,481,D,80,3,121,112,0.61,0,ralt,True,0.37118597,False
482,103,482,D,80,3,121,112,0.74,0,ralt,True,0.36749376,False
483,103,483,T,40,138,154,91,0.53,0,ralt,True,0.57568303,False
484,103,484,T,40,138,154,91,0.79,0,ralt,True,0.32542274,False
485,103,485,A,40,157,193,131,0.73,0,ralt,True,0.29910373,False
486,103,486,R,20,76,154,68,0.9,0,ralt,True,0.36705072,False
487,103,487,A,40,157,193,131,0.8,0,ralt,True,0.49266067,False
488,103,488,R,20,76,154,68,0.77,0,ralt,True,0.37054346,False
489,103,489,T,40,3,121,112,0.63,0,ralt,True,0.42226848,False
490,103,490,A,40,157,193,131,0.95,0,ralt,True,0.46222333,False
491,103,491,R,20,75,124,89,0.92,0,ralt,True,0.41801809999999995,False
492,103,492,T,40,138,154,91,0.81,0,ralt,True,0.38911214,False
493,103,493,I,20,157,193,131,0.78,0,ralt,True,0.39694154,False
494,103,494,R,20,75,124,89,0.99,0,ralt,True,0.45089009,False
495,103,495,R,20,157,193,131,0.72,0,ralt,True,0.36811713,False
496,103,496,9,0,229,181,212,0.78,1,lalt,True,0.47260557,False
497,103,497,O,80,0,168,107,0.91,0,ralt,True,0.46218199,False
498,103,498,R,20,76,154,68,0.89,0,ralt,True,0.39831061,False
499,103,499,D,80,138,154,91,0.79,0,ralt,True,0.34557328,False
500,103,500,I,20,75,124,89,0.72,0,ralt,True,0.4054803,False
501,103,501,R,20,75,124,89,0.99,0,ralt,True,0.47989455,False
502,103,502,R,20,76,154,68,0.64,0,ralt,True,0.35734706,False
503,103,503,D,80,3,121,112,0.83,0,ralt,True,0.74903811,False
504,103,504,D,80,3,121,112,0.73,0,ralt,True,0.39499903,False
505,103,505,R,20,76,154,68,0.95,0,ralt,True,0.36492983,False
506,103,506,T,40,76,154,68,0.88,0,ralt,True,0.35690263,False
507,103,507,I,20,75,124,89,0.5,0,ralt,True,0.3309759,False
508,103,508,A,40,138,154,91,0.71,0,ralt,True,0.58955024,False
509,103,509,R,20,75,124,89,0.51,0,ralt,True,0.44926801,False
510,103,510,R,20,76,154,68,0.72,0,ralt,True,0.62347949,False
511,103,511,A,40,157,193,131,0.54,0,ralt,True,0.40105875,False
512,103,512,D,80,3,121,112,0.94,0,ralt,True,0.37514506,False
513,103,513,I,20,138,154,91,0.64,0,ralt,True,0.33694712,False
514,103,514,O,80,0,168,107,0.75,0,ralt,True,0.42697799999999997,False
515,103,515,T,40,76,154,68,0.78,0,ralt,True,0.45449242,False
516,103,516,I,20,76,154,68,0.92,0,ralt,True,0.41633304,False
517,103,517,R,20,157,193,131,0.57,0,ralt,True,0.27403617,False
518,103,518,T,40,138,154,91,0.98,0,ralt,True,0.44181452,False
519,103,519,R,20,138,154,91,0.8,0,ralt,True,0.35985967,False
520,103,520,A,40,157,193,131,0.74,0,ralt,True,0.64209338,False
521,103,521,A,40,75,124,89,0.85,0,ralt,True,0.62560121,False
522,103,522,R,20,0,168,107,0.73,0,ralt,True,0.55551058,False
523,103,523,D,80,3,121,112,0.64,0,ralt,True,0.51510465,False
524,103,524,I,20,3,121,112,0.78,0,ralt,True,0.55018381,False
525,103,525,T,40,138,154,91,0.6,0,ralt,True,0.5164077,False
526,103,526,D,80,0,168,107,0.54,0,ralt,True,0.43014366,False
527,103,527,I,20,76,154,68,0.9,0,ralt,True,0.56391563,False
528,103,528,I,20,0,168,107,0.58,0,ralt,True,0.51555823,False
529,103,529,T,40,75,124,89,0.54,0,ralt,True,0.49171632,False
530,103,530,R,20,3,121,112,0.97,0,ralt,True,0.62109782,False
531,103,531,D,80,3,121,112,0.79,0,ralt,True,0.43309154,False
532,103,532,R,20,76,154,68,0.66,0,ralt,True,0.41277816,False
533,103,533,D,80,138,154,91,0.93,0,ralt,True,0.40656669,False
534,103,534,5,0,75,124,89,1.0,1,lalt,True,0.5346725999999999,False
535,103,535,I,20,0,168,107,0.99,0,ralt,True,0.34071729,False
536,103,536,A,40,138,154,91,0.78,0,ralt,True,0.4520536,False
537,103,537,O,80,0,168,107,0.89,0,ralt,True,0.49824517,False
538,103,538,A,40,157,193,131,0.91,0,ralt,True,0.37804134,False
539,103,539,T,40,157,193,131,0.89,0,ralt,True,0.42143039,False
540,103,540,T,40,138,154,91,0.87,0,ralt,True,0.50071672,False
541,103,541,O,80,138,154,91,0.86,0,ralt,True,0.54267816,False
542,103,542,T,40,76,154,68,0.75,0,ralt,True,0.79626841,False
543,103,543,8,0,229,181,212,0.83,1,lalt,True,0.49626438,False
544,103,544,A,40,157,193,131,0.86,0,ralt,True,0.49587931,False
545,103,545,R,20,138,154,91,0.7,0,ralt,True,0.33777606,False
546,103,546,T,40,0,168,107,0.77,0,ralt,True,0.35990017,False
547,103,547,O,80,138,154,91,0.81,0,ralt,True,0.39937147,False
548,103,548,I,20,76,154,68,0.58,0,ralt,True,0.49189471,False
549,103,549,O,80,0,168,107,0.9,0,ralt,True,0.55309507,False
550,103,550,I,20,76,154,68,0.95,0,ralt,True,0.38335758,False
551,103,551,T,40,157,193,131,0.97,0,ralt,True,0.44690188,False
552,103,552,D,80,3,121,112,0.83,0,ralt,True,0.42666146,False
553,103,553,T,40,138,154,91,0.73,0,ralt,True,0.37889774,False
554,103,554,T,40,0,168,107,0.94,0,ralt,True,0.33248701,False
555,103,555,I,20,157,193,131,0.85,0,ralt,True,0.40854221,False
556,103,556,D,80,3,121,112,0.77,0,ralt,True,0.42112634,False
557,103,557,R,20,157,193,131,0.87,0,ralt,True,0.40922494,False
558,103,558,D,80,3,121,112,0.64,0,ralt,True,0.37300392,False
559,103,559,I,20,3,121,112,0.86,0,ralt,True,0.35468964,False
560,103,560,R,20,76,154,68,0.88,0,ralt,True,0.38074648,False
561,103,561,I,20,75,124,89,0.96,0,ralt,True,0.41053798,False
562,103,562,O,80,0,168,107,0.56,0,ralt,True,0.44767505,False
563,103,563,D,80,3,121,112,0.75,0,ralt,True,0.46996146,False
564,103,564,I,20,157,193,131,0.69,0,ralt,True,0.44157316,False
565,103,565,A,40,157,193,131,0.68,0,ralt,True,0.42574735,False
566,103,566,T,40,138,154,91,0.86,0,ralt,True,0.44376451,False
567,103,567,O,80,75,124,89,0.93,0,ralt,True,0.46581622,False
568,103,568,T,40,75,124,89,0.53,0,ralt,True,0.41745327,False
569,103,569,9,0,3,121,112,0.65,1,lalt,True,0.51724801,False
570,103,570,I,20,3,121,112,0.84,0,ralt,True,0.34104464,False
571,103,571,T,40,138,154,91,0.87,0,ralt,True,0.24677837,False
572,103,572,A,40,75,124,89,0.99,0,ralt,True,0.34383329,False
573,103,573,D,80,3,121,112,0.99,0,ralt,True,0.27171471,False
574,103,574,I,20,76,154,68,0.65,0,ralt,True,0.32754197,False
575,103,575,T,40,138,154,91,0.52,0,ralt,True,0.38305657,False
576,103,576,T,40,157,193,131,0.58,0,ralt,True,0.49506952,False
577,103,577,O,80,0,168,107,0.86,0,ralt,True,0.42132442,False
578,103,578,D,80,3,121,112,0.87,0,ralt,True,0.31470538,False
579,103,579,A,40,157,193,131,0.74,0,ralt,True,0.4425261,False
580,103,580,O,80,3,121,112,0.76,0,ralt,True,0.46454480000000004,False
581,103,581,T,40,138,154,91,0.56,0,ralt,True,0.34647129,False
582,103,582,D,80,138,154,91,0.81,0,ralt,True,0.34445582,False
583,103,583,R,20,76,154,68,0.98,0,ralt,True,0.31622066,False
584,103,584,O,80,0,168,107,0.91,0,ralt,True,0.34557494,False
585,103,585,D,80,3,121,112,0.64,0,ralt,True,0.39801904,False
586,103,586,O,80,0,168,107,0.81,0,ralt,True,0.73141295,False
587,103,587,R,20,76,154,68,0.8,0,ralt,True,0.38772309,False
588,103,588,9,0,76,154,68,0.69,1,lalt,True,0.55060493,False
589,103,589,R,20,76,154,68,0.84,0,ralt,True,0.51432842,False
590,103,590,O,80,0,168,107,0.73,0,ralt,True,0.52823558,False
591,103,591,A,40,157,193,131,0.7,0,ralt,True,0.42084864,False
592,103,592,I,20,0,168,107,0.8,0,ralt,True,0.37151888,False
593,103,593,O,80,0,168,107,0.88,0,ralt,True,0.42597928,False
594,103,594,T,40,76,154,68,0.55,0,ralt,True,0.34744144,False
595,103,595,D,80,3,121,112,0.71,0,ralt,True,0.37114602,False
596,103,596,R,0,229,181,212,0.72,1,lalt,True,0.50463669,False
597,103,597,T,40,138,154,91,0.72,0,ralt,True,0.47725516,False
598,103,598,I,20,157,193,131,0.8,0,ralt,True,0.31491456,False
599,103,599,R,20,138,154,91,0.85,0,ralt,True,0.22445007,False
600,103,600,R,20,75,124,89,0.86,0,ralt,True,0.4667134,False
601,103,601,4,0,229,181,212,0.83,1,lalt,True,0.46241891,False
602,103,602,I,20,75,124,89,0.65,0,ralt,True,0.41836599,False
603,103,603,R,20,75,124,89,0.72,0,ralt,True,0.34226891,False
604,103,604,A,40,3,121,112,0.55,0,ralt,True,0.35206023,False
605,103,605,I,20,138,154,91,0.58,0,ralt,True,0.39295498,False
606,103,606,D,80,3,121,112,0.92,0,ralt,True,0.31055099,False
607,103,607,R,20,157,193,131,0.53,0,ralt,True,0.46436836,False
608,103,608,D,80,3,121,112,0.55,0,ralt,True,0.29259708,False
609,103,609,I,20,75,124,89,0.85,0,ralt,True,0.32061169,False
610,103,610,O,80,0,168,107,0.57,0,ralt,True,0.25193148,False
611,103,611,R,20,76,154,68,0.74,0,ralt,True,0.35232240000000004,False
612,103,612,O,80,0,168,107,0.54,0,ralt,True,0.36583894,False
613,103,613,A,40,76,154,68,0.66,0,ralt,True,0.28365467,False
614,103,614,A,40,157,193,131,0.61,0,missing,False,,True
615,103,615,5,0,3,121,112,0.85,1,lalt,True,0.76726313,False
616,103,616,I,20,75,124,89,0.55,0,ralt,True,0.34741896,False
617,103,617,I,20,0,168,107,0.81,0,ralt,True,0.32906890000000005,False
618,103,618,R,20,76,154,68,0.92,0,ralt,True,0.32298365,False
619,103,619,I,20,75,124,89,0.68,0,ralt,True,0.36090832,False
620,103,620,I,20,157,193,131,0.72,0,ralt,True,0.38448807,False
621,103,621,O,80,0,168,107,0.89,0,ralt,True,0.48658596,False
622,103,622,D,80,3,121,112,0.56,0,ralt,True,0.29514548,False
623,103,623,A,40,157,193,131,0.73,0,ralt,True,0.33322218,False
624,103,624,9,0,229,181,212,0.88,1,lalt,True,0.46863233,False
625,103,625,A,40,157,193,131,0.78,0,ralt,True,0.31095741,False
626,103,626,T,40,138,154,91,0.51,0,ralt,True,0.28466032,False
627,103,627,D,80,3,121,112,0.98,0,ralt,True,0.37270014,False
628,103,628,O,80,0,168,107,0.53,0,ralt,True,0.51049972,False
629,103,629,O,80,138,154,91,0.78,0,ralt,True,0.40001093,False
630,103,630,D,80,76,154,68,0.69,0,ralt,True,0.39622939,False
631,103,631,I,20,157,193,131,0.79,0,ralt,True,0.97601473,False
632,103,632,I,0,229,181,212,0.94,1,lalt,True,0.83764005,False
633,103,633,9,0,229,181,212,0.51,1,ralt,False,0.48157933,False
634,103,634,O,80,0,168,107,0.5,0,ralt,True,0.45367097,False
635,103,635,D,80,3,121,112,0.6,0,ralt,True,0.41146374,False
636,103,636,I,20,75,124,89,0.61,0,ralt,True,0.37327829,False
637,103,637,T,40,75,124,89,0.57,0,ralt,True,0.32946728,False
638,103,638,R,20,3,121,112,0.84,0,ralt,True,0.32092407,False
639,103,639,R,20,76,154,68,0.89,0,ralt,True,0.29800819,False
640,103,640,I,20,75,124,89,0.83,0,ralt,True,0.27189503,False
641,103,641,O,80,75,124,89,0.79,0,ralt,True,0.31933222,False
642,103,642,D,80,3,121,112,0.78,0,ralt,True,0.4189888,False
643,103,643,R,20,157,193,131,0.62,0,ralt,True,0.369216,False
644,103,644,I,20,75,124,89,0.75,0,ralt,True,0.51539289,False
645,103,645,R,20,76,154,68,0.98,0,ralt,True,0.43096649,False
646,103,646,A,40,157,193,131,0.5,0,ralt,True,0.3685266,False
647,103,647,T,40,138,154,91,0.73,0,ralt,True,0.47048246,False
648,103,648,O,80,0,168,107,0.94,0,ralt,True,0.44648269,False
649,103,649,T,40,3,121,112,0.82,0,ralt,True,0.5003274999999999,False
650,103,650,D,80,3,121,112,0.89,0,ralt,True,0.54220848,False
651,103,651,T,40,0,168,107,0.56,0,ralt,True,0.4380954000000001,False
652,103,652,R,20,138,154,91,0.86,0,ralt,True,0.41601234,False
653,103,653,T,40,0,168,107,0.88,0,ralt,True,0.36954169,False
654,103,654,T,40,138,154,91,0.83,0,ralt,True,0.36913333,False
655,103,655,O,80,0,168,107,0.8,0,ralt,True,0.29237820000000003,False
656,103,656,I,20,0,168,107,0.82,0,ralt,True,0.35395724,False
657,103,657,T,40,138,154,91,0.95,0,ralt,True,0.30394585,False
658,103,658,R,20,76,154,68,0.68,0,ralt,True,0.35567504,False
659,103,659,A,40,75,124,89,0.85,0,ralt,True,0.56202029,False
0,104,0,T,40,157,193,131,0.75,0,lalt,True,0.54709388,False
1,104,1,R,80,3,121,112,0.82,0,lalt,True,0.41817790000000005,False
2,104,2,R,80,3,121,112,0.5,0,lalt,True,0.32605166,False
3,104,3,O,40,75,124,89,0.9,0,lalt,True,0.40954647,False
4,104,4,D,20,0,168,107,0.76,0,lalt,True,0.38350378,False
5,104,5,T,40,138,154,91,0.85,0,lalt,True,0.31819757,False
6,104,6,I,80,138,154,91,0.9,0,lalt,True,0.40956007,False
7,104,7,T,40,0,168,107,0.77,0,lalt,True,0.41150563,False
8,104,8,R,80,3,121,112,0.75,0,lalt,True,0.35601571,False
9,104,9,A,20,157,193,131,0.94,0,lalt,True,0.58270708,False
10,104,10,I,80,138,154,91,0.5,0,lalt,True,0.47328580000000003,False
11,104,11,T,40,0,168,107,0.71,0,lalt,True,0.439275,False
12,104,12,T,40,157,193,131,0.62,0,lalt,True,0.33877616,False
13,104,13,I,80,75,124,89,0.98,0,lalt,True,0.41482470000000005,False
14,104,14,A,20,0,168,107,0.87,0,lalt,True,0.32465317,False
15,104,15,D,20,75,124,89,0.88,0,lalt,True,0.33753664,False
16,104,16,T,40,157,193,131,0.97,0,lalt,True,0.39537826,False
17,104,17,O,40,157,193,131,0.63,0,lalt,True,0.35914559,False
18,104,18,A,20,3,121,112,0.73,0,lalt,True,0.40333139,False
19,104,19,O,40,157,193,131,0.88,0,lalt,True,0.53490868,False
20,104,20,D,20,157,193,131,0.73,0,lalt,True,0.28465422,False
21,104,21,A,20,76,154,68,0.54,0,lalt,True,0.42823,False
22,104,22,I,80,138,154,91,0.6,0,lalt,True,0.70279688,False
23,104,23,O,40,0,168,107,0.63,0,lalt,True,0.492487,False
24,104,24,O,40,157,193,131,0.57,0,lalt,True,0.47635381,False
25,104,25,R,80,76,154,68,0.88,0,lalt,True,0.50209662,False
26,104,26,A,20,0,168,107,0.61,0,lalt,True,0.26788074,False
27,104,27,A,20,75,124,89,0.6,0,lalt,True,0.31346947,False
28,104,28,R,80,3,121,112,0.67,0,lalt,True,0.339814,False
29,104,29,T,40,0,168,107,0.83,0,lalt,True,0.41728848,False
30,104,30,R,80,3,121,112,0.94,0,lalt,True,0.33292451,False
31,104,31,A,20,3,121,112,0.92,0,lalt,True,0.27603195,False
32,104,32,O,40,157,193,131,0.81,0,lalt,True,0.34614449,False
33,104,33,9,0,157,193,131,0.81,1,ralt,True,0.65302574,False
34,104,34,D,20,76,154,68,0.71,0,lalt,True,0.43781243,False
35,104,35,T,40,157,193,131,0.73,0,lalt,True,0.48955437,False
36,104,36,R,80,3,121,112,0.63,0,lalt,True,0.51349116,False
37,104,37,O,40,157,193,131,0.99,0,lalt,True,0.49310815,False
38,104,38,I,80,138,154,91,0.58,0,lalt,True,0.60921945,False
39,104,39,O,40,0,168,107,0.7,0,lalt,True,0.4787843,False
40,104,40,A,20,138,154,91,0.8,0,lalt,True,0.65686221,False
41,104,41,D,20,157,193,131,0.96,0,lalt,True,0.46261727,False
42,104,42,T,40,0,168,107,0.88,0,lalt,True,0.37258556,False
43,104,43,I,80,0,168,107,0.73,0,lalt,True,0.31844059,False
44,104,44,T,40,76,154,68,0.77,0,lalt,True,0.3299486,False
45,104,45,T,0,245,127,32,0.98,1,ralt,True,0.4720424,False
46,104,46,I,80,138,154,91,0.97,0,lalt,True,0.43399927,False
47,104,47,T,40,0,168,107,0.57,0,lalt,True,0.37484183,False
48,104,48,O,40,157,193,131,0.52,0,lalt,True,0.43868215,False
49,104,49,A,20,157,193,131,0.83,0,lalt,True,0.46458918,False
50,104,50,T,40,75,124,89,0.91,0,lalt,True,0.41225161,False
51,104,51,I,80,138,154,91,0.96,0,lalt,True,0.74607275,False
52,104,52,R,80,3,121,112,0.52,0,lalt,True,0.49558913,False
53,104,53,O,0,245,127,32,0.57,1,ralt,True,0.48789595,False
54,104,54,T,40,0,168,107,0.59,0,lalt,True,0.3635319,False
55,104,55,I,80,138,154,91,0.96,0,lalt,True,0.54763596,False
56,104,56,O,40,76,154,68,0.76,0,lalt,True,0.51319654,False
57,104,57,A,20,157,193,131,0.8,0,lalt,True,0.35694840000000005,False
58,104,58,D,20,76,154,68,0.74,0,lalt,True,0.61922467,False
59,104,59,A,20,76,154,68,0.78,0,lalt,True,0.49235689,False
60,104,60,D,20,75,124,89,0.75,0,lalt,True,0.55467388,False
61,104,61,4,0,157,193,131,0.87,1,ralt,True,0.49362526,False
62,104,62,R,80,3,121,112,0.78,0,lalt,True,0.43053288,False
63,104,63,D,20,75,124,89,0.83,0,lalt,True,0.32720518,False
64,104,64,D,20,75,124,89,0.83,0,lalt,True,0.3250313,False
65,104,65,I,80,138,154,91,0.87,0,lalt,True,0.41904373,False
66,104,66,I,80,138,154,91,0.56,0,lalt,True,0.29612533,False
67,104,67,R,80,3,121,112,0.86,0,lalt,True,0.34091093,False
68,104,68,T,40,0,168,107,0.86,0,lalt,True,0.41052466,False
69,104,69,A,20,3,121,112,0.52,0,lalt,True,0.41237867,False
70,104,70,7,0,245,127,32,0.78,1,ralt,True,0.55523843,False
71,104,71,O,40,157,193,131,0.82,0,lalt,True,0.40989991,False
72,104,72,R,80,3,121,112,0.63,0,lalt,True,0.52359292,False
73,104,73,R,80,3,121,112,0.97,0,lalt,True,0.31349249,False
74,104,74,O,40,157,193,131,0.81,0,lalt,True,0.24939418,False
75,104,75,O,40,157,193,131,0.94,0,lalt,True,0.26719412,False
76,104,76,D,20,3,121,112,0.94,0,lalt,True,0.33501238,False
77,104,77,D,20,3,121,112,0.88,0,lalt,True,0.34312281,False
78,104,78,O,40,138,154,91,0.8,0,lalt,True,0.34312031,False
79,104,79,O,40,157,193,131,0.84,0,lalt,True,0.46768022,False
80,104,80,A,20,0,168,107,0.59,0,lalt,True,0.30766969,False
81,104,81,O,40,157,193,131,0.66,0,lalt,True,0.44923694,False
82,104,82,R,80,3,121,112,0.81,0,lalt,True,0.48877843,False
83,104,83,A,20,157,193,131,0.96,0,lalt,True,0.53714553,False
84,104,84,A,20,157,193,131,0.73,0,lalt,True,0.31506797,False
85,104,85,A,20,157,193,131,0.97,0,lalt,True,0.54874121,False
86,104,86,O,40,157,193,131,0.65,0,lalt,True,0.51289027,False
87,104,87,D,20,75,124,89,0.88,0,lalt,True,0.42455472,False
88,104,88,7,0,138,154,91,0.63,1,ralt,True,0.56429625,False
89,104,89,D,20,157,193,131,0.87,0,lalt,True,0.39999817,False
90,104,90,A,20,138,154,91,0.85,0,lalt,True,0.43187949,False
91,104,91,R,80,138,154,91,0.54,0,lalt,True,0.37994695,False
92,104,92,I,80,138,154,91,0.81,0,lalt,True,0.31359459,False
93,104,93,O,40,75,124,89,0.78,0,lalt,True,0.27955798,False
94,104,94,I,80,138,154,91,0.62,0,lalt,True,0.49416013,False
95,104,95,T,40,0,168,107,0.93,0,lalt,True,0.63646699,False
96,104,96,I,80,138,154,91,0.92,0,lalt,True,0.57031964,False
97,104,97,D,20,75,124,89,0.68,0,lalt,True,0.41560981,False
98,104,98,R,80,3,121,112,0.68,0,lalt,True,0.54167694,False
99,104,99,A,0,245,127,32,0.87,1,ralt,True,0.76358479,False
100,104,100,I,80,138,154,91,0.57,0,lalt,True,0.50726748,False
101,104,101,R,80,0,168,107,0.71,0,lalt,True,0.73522001,False
102,104,102,A,20,3,121,112,0.6,0,lalt,True,0.41506217,False
103,104,103,O,40,157,193,131,0.76,0,lalt,True,0.45721087,False
104,104,104,A,20,76,154,68,0.75,0,lalt,True,0.45108457,False
105,104,105,D,20,75,124,89,0.88,0,lalt,True,0.38642753,False
106,104,106,R,80,3,121,112,0.74,0,lalt,True,0.32443179,False
107,104,107,T,40,3,121,112,0.8,0,lalt,True,0.318556,False
108,104,108,A,20,138,154,91,0.71,0,lalt,True,0.40019486,False
109,104,109,R,80,138,154,91,0.91,0,lalt,True,0.40797599,False
110,104,110,T,40,0,168,107,0.7,0,lalt,True,0.52781889,False
111,104,111,T,40,0,168,107,0.56,0,lalt,True,0.55276022,False
112,104,112,O,40,157,193,131,0.65,0,lalt,True,0.4689385999999999,False
113,104,113,A,20,75,124,89,0.68,0,lalt,True,0.5361876,False
114,104,114,A,20,76,154,68,0.78,0,lalt,True,0.40401052,False
115,104,115,R,80,3,121,112,0.89,0,lalt,True,0.38415959999999993,False
116,104,116,5,0,245,127,32,0.5,1,ralt,True,0.36332800000000004,False
117,104,117,D,20,76,154,68,0.66,0,lalt,True,0.37002968,False
118,104,118,I,80,138,154,91,0.52,0,lalt,True,0.37004771,False
119,104,119,R,80,3,121,112,0.8,0,lalt,True,0.24750022,False
120,104,120,D,20,75,124,89,0.92,0,lalt,True,0.49374067,False
121,104,121,D,20,75,124,89,0.52,0,lalt,True,0.54867186,False
122,104,122,R,80,3,121,112,0.81,0,lalt,True,0.33102777,False
123,104,123,1,0,157,193,131,0.56,1,lalt,False,0.31040479,False
124,104,124,A,20,75,124,89,0.6,0,lalt,True,0.54920589,False
125,104,125,I,80,138,154,91,0.78,0,lalt,True,0.53445094,False
126,104,126,A,20,157,193,131,0.8,0,lalt,True,0.36483412,False
127,104,127,I,80,138,154,91,0.53,0,lalt,True,0.58232784,False
128,104,128,T,40,76,154,68,0.87,0,lalt,True,0.52335767,False
129,104,129,D,20,138,154,91,0.65,0,lalt,True,0.49076726,False
130,104,130,O,40,75,124,89,0.95,0,lalt,True,0.40294772,False
131,104,131,O,40,157,193,131,0.88,0,lalt,True,0.46862484,False
132,104,132,R,80,75,124,89,0.63,0,lalt,True,0.49894427,False
133,104,133,D,20,138,154,91,0.53,0,lalt,True,0.56215789,False
134,104,134,T,40,3,121,112,0.58,0,lalt,True,0.35032607,False
135,104,135,D,20,75,124,89,0.74,0,lalt,True,0.43623529,False
136,104,136,I,80,138,154,91,0.85,0,lalt,True,0.55764534,False
137,104,137,A,20,75,124,89,0.67,0,lalt,True,0.48145754,False
138,104,138,R,80,3,121,112,0.5,0,lalt,True,0.40954509,False
139,104,139,R,80,3,121,112,0.51,0,lalt,True,0.67359047,False
140,104,140,O,40,157,193,131,0.79,0,lalt,True,0.41333938,False
141,104,141,D,20,3,121,112,0.81,0,lalt,True,0.40511938,False
142,104,142,A,20,76,154,68,0.89,0,lalt,True,0.51714009,False
143,104,143,I,80,157,193,131,0.55,0,lalt,True,0.75692112,False
144,104,144,T,40,0,168,107,0.77,0,lalt,True,0.44228114,False
145,104,145,D,20,138,154,91,0.93,0,lalt,True,0.39359111,False
146,104,146,I,80,138,154,91,0.94,0,lalt,True,0.50587316,False
147,104,147,R,80,3,121,112,0.9,0,lalt,True,0.42321782,False
148,104,148,I,80,138,154,91,0.57,0,lalt,True,0.38159595,False
149,104,149,A,20,157,193,131,0.93,0,lalt,True,0.53143675,False
150,104,150,8,0,76,154,68,0.86,1,lalt,False,0.37022193,False
151,104,151,R,80,3,121,112,0.77,0,lalt,True,0.5649088000000001,False
152,104,152,I,80,138,154,91,0.92,0,lalt,True,0.31818619,False
153,104,153,1,0,245,127,32,0.67,1,ralt,True,0.65624023,False
154,104,154,O,40,157,193,131,0.56,0,lalt,True,0.47198664,False
155,104,155,A,20,138,154,91,0.72,0,lalt,True,0.44211663,False
156,104,156,R,80,3,121,112,0.74,0,lalt,True,0.32839254,False
157,104,157,A,0,245,127,32,0.73,1,lalt,False,0.48601503,False
158,104,158,T,40,3,121,112,0.9,0,lalt,True,0.88179645,False
159,104,159,A,0,245,127,32,0.51,1,ralt,True,0.45532607,False
160,104,160,D,20,76,154,68,0.84,0,lalt,True,0.40370064,False
161,104,161,I,80,138,154,91,0.73,0,lalt,True,0.52245522,False
162,104,162,T,40,0,168,107,0.69,0,lalt,True,0.46999863,False
163,104,163,R,80,138,154,91,0.61,0,lalt,True,0.42163457,False
164,104,164,O,40,138,154,91,0.74,0,lalt,True,0.51792381,False
165,104,165,A,20,3,121,112,0.75,0,lalt,True,0.45200228,False
166,104,166,I,80,138,154,91,0.84,0,lalt,True,0.42718717,False
167,104,167,T,40,3,121,112,0.91,0,lalt,True,0.42934662,False
168,104,168,O,40,157,193,131,0.74,0,lalt,True,0.48935602,False
169,104,169,T,40,76,154,68,0.86,0,lalt,True,0.38290704,False
170,104,170,I,0,245,127,32,0.88,1,ralt,True,0.53713971,False
171,104,171,D,20,3,121,112,0.77,0,lalt,True,0.31507186,False
172,104,172,O,40,157,193,131,0.55,0,lalt,True,0.49072315,False
173,104,173,A,20,76,154,68,0.91,0,lalt,True,0.42234672,False
174,104,174,R,80,3,121,112,0.6,0,lalt,True,0.25839735,False
175,104,175,T,40,0,168,107,0.96,0,lalt,True,0.32800055,False
176,104,176,R,80,75,124,89,0.78,0,lalt,True,0.54182564,False
177,104,177,T,40,138,154,91,0.81,0,lalt,True,0.53313956,False
178,104,178,2,0,245,127,32,0.96,1,ralt,True,0.44791058,False
179,104,179,D,20,75,124,89,0.93,0,lalt,True,0.33848127,False
180,104,180,T,40,0,168,107,0.69,0,lalt,True,0.37025633,False
181,104,181,D,20,3,121,112,0.9,0,lalt,True,0.39420089,False
182,104,182,O,40,157,193,131,0.53,0,lalt,True,0.27594234,False
183,104,183,D,20,3,121,112,0.74,0,lalt,True,0.29991408,False
184,104,184,D,20,0,168,107,0.89,0,lalt,True,0.33982787,False
185,104,185,9,0,245,127,32,0.94,1,ralt,True,0.54955656,False
186,104,186,T,40,0,168,107,0.76,0,lalt,True,0.38324855,False
187,104,187,R,80,76,154,68,0.91,0,lalt,True,0.55723642,False
188,104,188,R,80,3,121,112,0.7,0,lalt,True,0.35466855,False
189,104,189,D,20,3,121,112,0.86,0,lalt,True,0.32673939,False
190,104,190,A,20,76,154,68,0.93,0,lalt,True,0.41664625,False
191,104,191,O,40,75,124,89,0.58,0,lalt,True,0.56458921,False
192,104,192,O,40,157,193,131,0.63,0,lalt,True,0.45254686,False
193,104,193,I,80,138,154,91,0.56,0,lalt,True,0.49951715,False
194,104,194,R,80,3,121,112,0.76,0,lalt,True,0.48501797,False
195,104,195,D,20,75,124,89,0.62,0,lalt,True,0.4789183,False
196,104,196,T,40,0,168,107,0.87,0,lalt,True,0.44070427,False
197,104,197,A,20,157,193,131,0.72,0,ralt,False,0.70844713,False
198,104,198,O,40,75,124,89,0.56,0,lalt,True,0.60244342,False
199,104,199,O,40,76,154,68,0.95,0,lalt,True,0.35844648,False
200,104,200,R,80,3,121,112,0.55,0,lalt,True,0.32030431,False
201,104,201,R,80,3,121,112,0.7,0,lalt,True,0.31816261,False
202,104,202,I,80,138,154,91,0.81,0,lalt,True,0.44364938,False
203,104,203,O,40,157,193,131,0.67,0,lalt,True,0.50770886,False
204,104,204,A,20,138,154,91,0.57,0,lalt,True,0.29133148,False
205,104,205,T,40,3,121,112,0.82,0,lalt,True,0.31971645,False
206,104,206,I,0,245,127,32,0.53,1,lalt,False,0.23687497,False
207,104,207,T,40,3,121,112,0.77,0,lalt,True,0.56140191,False
208,104,208,T,40,75,124,89,0.58,0,lalt,True,0.87508867,False
209,104,209,O,40,157,193,131,0.92,0,lalt,True,0.39096226,False
210,104,210,D,20,76,154,68,0.77,0,lalt,True,0.50596332,False
211,104,211,R,80,3,121,112,0.68,0,lalt,True,0.30987075,False
212,104,212,D,20,75,124,89,0.79,0,lalt,True,0.2637921,False
213,104,213,A,20,157,193,131,0.71,0,lalt,True,0.58342782,False
214,104,214,I,80,138,154,91,0.53,0,lalt,True,0.27926974,False
215,104,215,D,20,75,124,89,0.55,0,lalt,True,0.42930779,False
216,104,216,A,20,76,154,68,0.77,0,lalt,True,0.73318872,False
217,104,217,O,40,157,193,131,0.75,0,lalt,True,0.36488794,False
218,104,218,R,80,3,121,112,0.52,0,lalt,True,0.37280667,False
219,104,219,O,40,75,124,89,0.86,0,lalt,True,0.4144499,False
220,104,220,R,80,75,124,89,0.91,0,lalt,True,0.53440488,False
221,104,221,T,40,75,124,89,0.93,0,lalt,True,0.45583153,False
222,104,222,O,0,245,127,32,0.69,1,lalt,False,0.43128829999999996,False
223,104,223,7,0,245,127,32,0.83,1,ralt,True,0.58403565,False
224,104,224,5,0,245,127,32,0.65,1,ralt,True,0.46032521,False
225,104,225,R,80,3,121,112,0.87,0,lalt,True,0.42419102,False
226,104,226,I,80,138,154,91,0.9,0,lalt,True,0.48776445,False
227,104,227,T,40,0,168,107,0.74,0,lalt,True,0.48171499,False
228,104,228,I,80,138,154,91,0.68,0,lalt,True,0.35979059,False
229,104,229,R,80,3,121,112,0.95,0,lalt,True,0.40144603,False
230,104,230,A,20,0,168,107,0.65,0,lalt,True,0.29747277,False
231,104,231,R,80,3,121,112,0.97,0,lalt,True,0.30929982,False
232,104,232,O,40,0,168,107,0.65,0,lalt,True,0.29294219,False
233,104,233,R,80,3,121,112,0.97,0,lalt,True,0.34305595,False
234,104,234,D,20,75,124,89,0.76,0,lalt,True,0.39836637,False
235,104,235,D,20,75,124,89,0.89,0,lalt,True,0.39068928,False
236,104,236,T,40,0,168,107,0.55,0,lalt,True,0.30415836,False
237,104,237,I,80,138,154,91,0.55,0,lalt,True,0.55641387,False
238,104,238,I,80,138,154,91,0.77,0,lalt,True,0.5257299,False
239,104,239,I,80,138,154,91,0.98,0,lalt,True,0.62268994,False
240,104,240,O,40,0,168,107,0.88,0,lalt,True,0.5090169,False
241,104,241,A,20,138,154,91,0.63,0,lalt,True,0.57467044,False
242,104,242,I,0,245,127,32,0.9,1,ralt,True,0.39455709,False
243,104,243,O,40,157,193,131,0.93,0,lalt,True,0.23624299999999998,False
244,104,244,O,40,0,168,107,0.89,0,lalt,True,0.27390939,False
245,104,245,O,40,76,154,68,0.54,0,lalt,True,0.27558946,False
246,104,246,A,20,0,168,107,0.52,0,lalt,True,0.29211326,False
247,104,247,R,80,3,121,112,0.61,0,lalt,True,0.36168289,False
248,104,248,T,40,0,168,107,0.52,0,lalt,True,0.40550333,False
249,104,249,D,20,76,154,68,0.74,0,lalt,True,0.27556782,False
250,104,250,A,20,76,154,68,0.8,0,lalt,True,0.32538973,False
251,104,251,T,40,0,168,107,0.89,0,lalt,True,0.38731333,False
252,104,252,D,20,138,154,91,0.58,0,lalt,True,0.49892152,False
253,104,253,A,20,76,154,68,0.6,0,lalt,True,0.40092004,False
254,104,254,A,20,157,193,131,0.99,0,lalt,True,0.35286864,False
255,104,255,T,40,3,121,112,0.98,0,lalt,True,0.50062489,False
256,104,256,T,40,0,168,107,0.79,0,lalt,True,0.36958968,False
257,104,257,R,80,3,121,112,0.52,0,lalt,True,0.32108525,False
258,104,258,I,80,138,154,91,0.83,0,lalt,True,0.31111499,False
259,104,259,T,40,0,168,107,0.91,0,lalt,True,0.26704986,False
260,104,260,O,40,3,121,112,0.86,0,lalt,True,0.41492346,False
261,104,261,I,80,138,154,91,0.95,0,lalt,True,0.47263691,False
262,104,262,I,80,138,154,91,0.96,0,lalt,True,0.33415154,False
263,104,263,A,20,157,193,131,0.68,0,lalt,True,0.63230067,False
264,104,264,T,40,0,168,107,0.58,0,lalt,True,0.46219115,False
265,104,265,R,80,3,121,112,0.79,0,lalt,True,0.45188271,False
266,104,266,D,20,76,154,68,0.66,0,lalt,True,0.3240925,False
267,104,267,O,40,157,193,131,0.63,0,lalt,True,0.26604920000000004,False
268,104,268,I,80,138,154,91,0.88,0,lalt,True,0.27387388,False
269,104,269,D,20,3,121,112,0.98,0,lalt,True,0.45115337,False
270,104,270,T,40,0,168,107,0.79,0,lalt,True,0.54901087,False
271,104,271,A,20,0,168,107,0.79,0,lalt,True,0.50897335,False
272,104,272,A,20,75,124,89,0.83,0,lalt,True,0.45556437,False
273,104,273,9,0,75,124,89,0.96,1,ralt,True,0.62136359,False
274,104,274,D,20,138,154,91,0.69,0,lalt,True,0.90726905,False
275,104,275,D,20,0,168,107,0.99,0,lalt,True,0.40936282,False
276,104,276,T,40,3,121,112,0.88,0,lalt,True,0.36532294,False
277,104,277,8,0,245,127,32,0.8,1,ralt,True,0.45503838,False
278,104,278,T,40,0,168,107,0.65,0,lalt,True,0.26474726,False
279,104,279,O,40,76,154,68,0.57,0,lalt,True,0.33660534,False
280,104,280,I,80,138,154,91,0.91,0,lalt,True,0.52477363,False
281,104,281,T,40,0,168,107,0.95,0,lalt,True,0.34455902,False
282,104,282,A,0,245,127,32,0.96,1,lalt,False,0.34849869,False
283,104,283,A,20,0,168,107,0.58,0,lalt,True,0.67215564,False
284,104,284,T,40,0,168,107,0.87,0,lalt,True,0.6318665,False
285,104,285,D,20,0,168,107,0.66,0,lalt,True,0.36405456,False
286,104,286,A,20,76,154,68,0.57,0,lalt,True,0.37355488,False
287,104,287,R,80,3,121,112,0.58,0,lalt,True,0.32963678,False
288,104,288,O,40,76,154,68,0.95,0,lalt,True,0.33263959,False
289,104,289,A,20,0,168,107,0.8,0,lalt,True,0.26444099,False
290,104,290,I,80,138,154,91,0.78,0,lalt,True,0.51848059,False
291,104,291,D,20,0,168,107,0.55,0,lalt,True,0.6320521,False
292,104,292,I,80,138,154,91,0.52,0,lalt,True,0.53540776,False
293,104,293,O,40,157,193,131,0.77,0,lalt,True,0.48563857,False
294,104,294,I,80,138,154,91,0.92,0,lalt,True,0.50141471,False
295,104,295,D,20,75,124,89,0.9,0,lalt,True,0.37138433,False
296,104,296,O,40,157,193,131,1.0,0,lalt,True,0.28509671,False
297,104,297,I,80,138,154,91,0.88,0,lalt,True,0.39521486,False
298,104,298,R,80,3,121,112,0.75,0,lalt,True,0.37288601,False
299,104,299,I,80,138,154,91,0.64,0,lalt,True,0.50508195,False
300,104,300,D,20,138,154,91,0.54,0,lalt,True,0.69474666,False
301,104,301,A,20,3,121,112,0.75,0,lalt,True,0.50774215,False
302,104,302,O,40,157,193,131,0.99,0,lalt,True,0.51644016,False
303,104,303,I,80,138,154,91,0.91,0,lalt,True,0.50048285,False
304,104,304,O,40,76,154,68,0.95,0,lalt,True,0.35611004,False
305,104,305,I,80,138,154,91,0.98,0,lalt,True,0.42888527,False
306,104,306,A,20,75,124,89,0.57,0,lalt,True,0.43471945,False
307,104,307,R,80,76,154,68,0.75,0,lalt,True,0.37075125,False
308,104,308,D,20,138,154,91,0.76,0,lalt,True,0.34627709999999995,False
309,104,309,D,20,138,154,91,0.86,0,lalt,True,0.58592711,False
310,104,310,1,0,245,127,32,0.9,1,ralt,True,0.50984612,False
311,104,311,A,20,76,154,68,0.66,0,lalt,True,0.37972612,False
312,104,312,R,80,3,121,112,0.91,0,lalt,True,0.30155476,False
